"condition_idx","trial_idx","item_idx","rank_idx","group","rt","choice"
1,1,3,1,0,0.84,1
1,1,1,2,0,0.95,1
1,1,2,3,0,1.05,1
1,2,3,1,0,0.81,1
1,2,2,2,0,1.22,1
1,2,1,3,0,1.5,-1
1,3,3,1,0,0.61,1
1,3,2,2,0,0.71,1
1,3,1,3,0,1.35,1
1,4,1,1,1,0.72,-1
1,4,2,2,1,0.87,1
1,4,3,3,1,1.08,1
1,5,3,1,1,1.18,1
1,5,2,2,1,1.46,-1
1,5,1,3,1,3.04,-1
1,6,1,1,1,0.35,1
1,6,2,2,1,0.59,-1
1,6,3,3,1,0.89,1
1,7,1,1,1,0.56,-1
1,7,3,2,1,0.73,1
1,7,2,3,1,1.56,1
1,8,2,1,0,0.16,1
1,8,3,2,0,0.52,1
1,8,1,3,0,1.53,-1
1,9,3,1,1,0.5,1
1,9,1,2,1,0.96,1
1,9,2,3,1,1.78,-1
1,10,1,1,0,0.39,-1
1,10,2,2,0,0.63,1
1,10,3,3,0,1.03,1
1,11,2,1,1,0.42,-1
1,11,1,2,1,0.47,1
1,11,3,3,1,0.88,1
1,12,3,1,1,0.37,1
1,12,2,2,1,0.43,-1
1,12,1,3,1,1.42,1
1,13,2,1,1,0.75,1
1,13,3,2,1,0.85,1
1,13,1,3,1,1.04,1
1,14,1,1,0,0.34,-1
1,14,3,2,0,1.39,1
1,14,2,3,0,3.96,1
1,15,2,1,0,0.47,1
1,15,3,2,0,0.48,1
1,15,1,3,0,1.3,-1
1,16,3,1,0,0.35,1
1,16,2,2,0,0.41,1
1,16,1,3,0,1.16,1
1,17,2,1,0,0.61,1
1,17,3,2,0,0.72,1
1,17,1,3,0,0.9,-1
1,18,2,1,1,0.24,-1
1,18,1,2,1,1.82,-1
1,18,3,3,1,2.65,1
1,19,2,1,1,0.56,1
1,19,1,2,1,0.59,1
1,19,3,3,1,0.99,1
1,20,3,1,0,0.18,1
1,20,2,2,0,0.58,1
1,20,1,3,0,0.93,-1
1,21,3,1,1,0.13,1
1,21,2,2,1,0.33,1
1,21,1,3,1,1.19,-1
1,22,3,1,1,0.2,1
1,22,2,2,1,1.06,1
1,22,1,3,1,1.34,1
1,23,3,1,0,0.22,1
1,23,2,2,0,0.48,1
1,23,1,3,0,0.75,-1
1,24,3,1,1,0.21,1
1,24,1,2,1,0.31,1
1,24,2,3,1,0.57,1
1,25,3,1,0,0.59,-1
1,25,2,2,0,0.81,1
1,25,1,3,0,1.06,1
1,26,2,1,0,0.27,1
1,26,3,2,0,0.81,1
1,26,1,3,0,1.21,-1
1,27,3,1,1,0.59,1
1,27,1,2,1,0.73,1
1,27,2,3,1,1.17,-1
1,28,2,1,1,0.21,1
1,28,1,2,1,0.46,1
1,28,3,3,1,1.58,1
1,29,2,1,0,0.16,1
1,29,3,2,0,0.3,1
1,29,1,3,0,0.82,-1
1,30,2,1,1,1.01,1
1,30,3,2,1,1.18,1
1,30,1,3,1,1.84,1
1,31,3,1,1,0.15,1
1,31,2,2,1,0.72,-1
1,31,1,3,1,0.95,1
1,32,3,1,1,0.35,1
1,32,1,2,1,1.13,1
1,32,2,3,1,1.14,1
1,33,2,1,0,0.62,1
1,33,1,2,0,1.21,-1
1,33,3,3,0,1.32,1
1,34,2,1,1,0.23,1
1,34,3,2,1,0.27,1
1,34,1,3,1,1.25,1
1,35,1,1,0,1.02,-1
1,35,3,2,0,1.13,1
1,35,2,3,0,1.7,1
1,36,2,1,1,0.83,1
1,36,1,2,1,1.11,-1
1,36,3,3,1,1.33,1
1,37,2,1,1,0.29,-1
1,37,1,2,1,0.6,1
1,37,3,3,1,0.94,1
1,38,3,1,1,0.24,1
1,38,1,2,1,0.34,1
1,38,2,3,1,0.81,1
1,39,2,1,1,0.12,1
1,39,3,2,1,0.19,1
1,39,1,3,1,0.75,1
1,40,2,1,0,1.26,-1
1,40,3,2,0,1.74,-1
1,40,1,3,0,2.46,1
1,41,3,1,0,0.45,1
1,41,2,2,0,1.91,1
1,41,1,3,0,2.02,1
1,42,3,1,0,0.39,1
1,42,1,2,0,0.43,-1
1,42,2,3,0,1.2,1
1,43,3,1,0,0.55,-1
1,43,2,2,0,1.07,-1
1,43,1,3,0,3.71,1
1,44,2,1,1,0.44,1
1,44,1,2,1,0.46,1
1,44,3,3,1,0.57,-1
1,45,2,1,0,0.42,-1
1,45,3,2,0,1.13,1
1,45,1,3,0,1.22,1
1,46,2,1,0,0.4,-1
1,46,3,2,0,0.88,1
1,46,1,3,0,1.61,-1
1,47,3,1,1,1.33,1
1,47,2,2,1,2.68,1
1,47,1,3,1,2.93,-1
1,48,3,1,1,0.91,1
1,48,2,2,1,1.09,1
1,48,1,3,1,2.67,-1
1,49,1,1,0,0.35,1
1,49,2,2,0,1.08,1
1,49,3,3,0,1.81,1
1,50,1,1,0,0.56,1
1,50,2,2,0,0.91,1
1,50,3,3,0,1.24,1
1,51,1,1,1,0.23,1
1,51,3,2,1,0.33,1
1,51,2,3,1,5.55,1
1,52,1,1,1,0.58,1
1,52,2,2,1,0.85,1
1,52,3,3,1,0.9,1
1,53,2,1,0,0.71,-1
1,53,1,2,0,1.28,1
1,53,3,3,0,1.45,1
1,54,3,1,1,0.33,1
1,54,2,2,1,0.47,1
1,54,1,3,1,0.79,1
1,55,1,1,0,0.34,1
1,55,3,2,0,0.46,-1
1,55,2,3,0,2.01,1
1,56,1,1,0,0.23,-1
1,56,3,2,0,0.65,1
1,56,2,3,0,0.76,1
1,57,2,1,1,0.28,1
1,57,1,2,1,0.35,1
1,57,3,3,1,0.5,1
1,58,2,1,1,0.36,1
1,58,1,2,1,0.4,1
1,58,3,3,1,0.43,1
1,59,1,1,0,0.26,1
1,59,3,2,0,0.28,1
1,59,2,3,0,0.43,1
1,60,2,1,1,0.57,1
1,60,1,2,1,1.03,1
1,60,3,3,1,5.12,1
1,61,2,1,0,0.42,1
1,61,1,2,0,0.5,1
1,61,3,3,0,1.06,1
1,62,3,1,1,1.25,1
1,62,2,2,1,1.54,1
1,62,1,3,1,1.9,-1
1,63,1,1,0,0.7,-1
1,63,3,2,0,0.96,1
1,63,2,3,0,1.17,1
1,64,3,1,1,0.41,1
1,64,1,2,1,0.74,1
1,64,2,3,1,1.33,1
1,65,3,1,1,0.55,1
1,65,2,2,1,0.63,1
1,65,1,3,1,0.81,1
1,66,2,1,0,1.12,1
1,66,3,2,0,1.51,1
1,66,1,3,0,4.53,1
1,67,3,1,0,0.31,-1
1,67,2,2,0,0.32,-1
1,67,1,3,0,1.03,1
1,68,3,1,0,0.67,1
1,68,1,2,0,0.75,1
1,68,2,3,0,1.64,1
1,69,1,1,1,0.23,1
1,69,3,2,1,1.02,1
1,69,2,3,1,2.21,1
1,70,3,1,1,0.6,1
1,70,1,2,1,0.86,1
1,70,2,3,1,1.03,1
1,71,3,1,1,0.22,1
1,71,2,2,1,0.24,1
1,71,1,3,1,1.14,-1
1,72,1,1,0,0.45,1
1,72,3,2,0,0.78,1
1,72,2,3,0,0.84,1
1,73,2,1,0,0.24,1
1,73,1,2,0,0.33,-1
1,73,3,3,0,0.63,-1
1,74,3,1,1,0.48,-1
1,74,2,2,1,0.56,1
1,74,1,3,1,1.12,1
1,75,2,1,1,0.25,1
1,75,3,2,1,0.52,1
1,75,1,3,1,1.27,1
1,76,1,1,1,0.59,-1
1,76,3,2,1,0.71,1
1,76,2,3,1,0.75,1
1,77,2,1,1,0.35,1
1,77,3,2,1,0.73,1
1,77,1,3,1,1.49,1
1,78,1,1,1,0.24,-1
1,78,3,2,1,0.44,1
1,78,2,3,1,1.22,1
1,79,3,1,0,0.2,-1
1,79,1,2,0,1.21,-1
1,79,2,3,0,1.22,-1
1,80,2,1,1,0.29,1
1,80,3,2,1,0.78,1
1,80,1,3,1,2.9,1
1,81,3,1,1,0.41,1
1,81,2,2,1,1.26,1
1,81,1,3,1,1.52,-1
1,82,2,1,1,0.53,1
1,82,3,2,1,0.76,1
1,82,1,3,1,1.04,1
1,83,1,1,0,0.65,1
1,83,3,2,0,0.98,1
1,83,2,3,0,1.3,1
1,84,3,1,1,0.15,1
1,84,1,2,1,0.6,1
1,84,2,3,1,0.66,-1
1,85,2,1,1,0.6,-1
1,85,3,2,1,1.14,1
1,85,1,3,1,2.87,1
1,86,2,1,0,0.45,1
1,86,1,2,0,1.44,-1
1,86,3,3,0,2.14,1
1,87,1,1,0,0.13,1
1,87,2,2,0,0.23,1
1,87,3,3,0,0.47,1
1,88,3,1,1,0.5,1
1,88,2,2,1,1.13,-1
1,88,1,3,1,1.39,-1
1,89,1,1,0,0.19,1
1,89,3,2,0,1.45,1
1,89,2,3,0,1.98,1
1,90,3,1,1,0.15,1
1,90,1,2,1,0.76,1
1,90,2,3,1,1.2,1
1,91,2,1,1,0.25,1
1,91,3,2,1,0.85,1
1,91,1,3,1,1.6,1
1,92,3,1,0,0.37,1
1,92,1,2,0,1.22,1
1,92,2,3,0,1.87,1
1,93,3,1,0,0.15,1
1,93,1,2,0,0.51,1
1,93,2,3,0,1.65,-1
1,94,3,1,1,0.23,-1
1,94,2,2,1,0.26,1
1,94,1,3,1,0.85,-1
1,95,2,1,1,0.41,-1
1,95,3,2,1,1.56,-1
1,95,1,3,1,2.89,1
1,96,3,1,1,0.3,1
1,96,2,2,1,0.78,1
1,96,1,3,1,1.04,1
1,97,2,1,0,0.42,1
1,97,3,2,0,0.69,1
1,97,1,3,0,0.7,1
1,98,1,1,0,0.19,1
1,98,3,2,0,0.61,1
1,98,2,3,0,0.77,1
1,99,1,1,1,0.25,1
1,99,3,2,1,0.71,1
1,99,2,3,1,1.63,1
1,100,3,1,0,0.24,1
1,100,2,2,0,0.3,1
1,100,1,3,0,0.38,1
1,101,1,1,0,0.13,1
1,101,2,2,0,0.29,-1
1,101,3,3,0,0.84,1
1,102,1,1,1,0.35,-1
1,102,2,2,1,0.48,-1
1,102,3,3,1,0.59,1
1,103,1,1,0,0.67,1
1,103,2,2,0,0.91,1
1,103,3,3,0,1.97,1
1,104,1,1,1,0.54,1
1,104,2,2,1,0.87,1
1,104,3,3,1,1.14,1
1,105,1,1,0,0.68,1
1,105,2,2,0,0.94,1
1,105,3,3,0,1.85,1
1,106,1,1,0,0.15,1
1,106,2,2,0,0.34,1
1,106,3,3,0,0.63,1
1,107,2,1,0,0.32,1
1,107,1,2,0,0.57,1
1,107,3,3,0,0.77,1
1,108,2,1,0,0.83,1
1,108,1,2,0,0.9,-1
1,108,3,3,0,1,1
1,109,1,1,1,0.41,1
1,109,3,2,1,0.42,1
1,109,2,3,1,0.43,-1
1,110,1,1,1,0.13,-1
1,110,3,2,1,2.13,1
1,110,2,3,1,3.63,1
1,111,2,1,1,0.18,1
1,111,1,2,1,0.28,1
1,111,3,3,1,0.81,1
1,112,3,1,0,0.25,1
1,112,2,2,0,0.53,-1
1,112,1,3,0,0.68,-1
1,113,1,1,1,0.41,1
1,113,3,2,1,0.82,1
1,113,2,3,1,0.83,1
1,114,2,1,0,0.26,1
1,114,1,2,0,1.04,1
1,114,3,3,0,1.35,1
1,115,1,1,1,0.68,1
1,115,2,2,1,0.69,1
1,115,3,3,1,1.21,1
1,116,2,1,1,0.44,-1
1,116,3,2,1,0.58,1
1,116,1,3,1,2.67,1
1,117,1,1,1,0.31,-1
1,117,3,2,1,0.34,1
1,117,2,3,1,0.69,1
1,118,2,1,0,0.34,1
1,118,3,2,0,0.64,1
1,118,1,3,0,2.44,-1
1,119,2,1,0,0.46,1
1,119,3,2,0,1.27,1
1,119,1,3,0,1.47,-1
1,120,1,1,1,1.08,1
1,120,3,2,1,1.29,1
1,120,2,3,1,2.2,-1
1,121,3,1,1,0.21,1
1,121,2,2,1,0.41,1
1,121,1,3,1,1.1,1
1,122,2,1,0,0.39,1
1,122,3,2,0,1.45,1
1,122,1,3,0,2.82,1
1,123,2,1,1,0.45,1
1,123,3,2,1,1.2,1
1,123,1,3,1,2.2,1
1,124,1,1,1,0.13,-1
1,124,3,2,1,0.36,1
1,124,2,3,1,0.6,1
1,125,3,1,1,0.55,1
1,125,2,2,1,1.28,1
1,125,1,3,1,1.41,1
1,126,1,1,0,0.27,1
1,126,2,2,0,0.29,1
1,126,3,3,0,0.33,-1
1,127,2,1,1,0.12,1
1,127,3,2,1,1.53,1
1,127,1,3,1,2.07,1
1,128,2,1,1,0.28,-1
1,128,3,2,1,0.62,1
1,128,1,3,1,1.17,1
1,129,1,1,0,0.47,1
1,129,2,2,0,0.59,1
1,129,3,3,0,1.25,1
1,130,1,1,1,0.1,-1
1,130,3,2,1,0.4,1
1,130,2,3,1,1.31,-1
1,131,3,1,0,0.12,1
1,131,1,2,0,0.36,1
1,131,2,3,0,0.73,-1
1,132,1,1,0,0.56,-1
1,132,2,2,0,0.73,1
1,132,3,3,0,1.72,-1
1,133,1,1,1,0.54,1
1,133,3,2,1,0.63,1
1,133,2,3,1,1.32,-1
1,134,3,1,0,0.33,1
1,134,1,2,0,1.08,1
1,134,2,3,0,1.49,1
1,135,2,1,1,0.57,1
1,135,3,2,1,0.59,1
1,135,1,3,1,2.08,-1
1,136,3,1,1,0.51,1
1,136,2,2,1,1.09,1
1,136,1,3,1,1.59,1
1,137,3,1,1,0.6,1
1,137,2,2,1,0.99,1
1,137,1,3,1,1.11,1
1,138,1,1,0,0.31,1
1,138,3,2,0,0.57,1
1,138,2,3,0,1.52,1
1,139,3,1,0,0.72,1
1,139,1,2,0,0.85,1
1,139,2,3,0,0.98,1
1,140,1,1,1,0.4,1
1,140,2,2,1,0.73,1
1,140,3,3,1,1.15,1
1,141,3,1,1,0.2,1
1,141,1,2,1,0.42,1
1,141,2,3,1,1.39,-1
1,142,2,1,1,0.19,1
1,142,3,2,1,1.3,1
1,142,1,3,1,1.67,1
1,143,3,1,0,0.32,1
1,143,1,2,0,0.93,1
1,143,2,3,0,1.02,1
1,144,3,1,0,0.44,1
1,144,2,2,0,0.57,1
1,144,1,3,0,1.24,-1
1,145,2,1,1,0.31,1
1,145,3,2,1,0.7,1
1,145,1,3,1,1.17,-1
1,146,2,1,0,0.24,1
1,146,3,2,0,0.28,1
1,146,1,3,0,0.49,1
1,147,2,1,1,0.28,1
1,147,3,2,1,0.39,1
1,147,1,3,1,0.73,-1
1,148,1,1,1,0.86,1
1,148,3,2,1,1.05,1
1,148,2,3,1,1.28,-1
1,149,1,1,0,0.38,1
1,149,3,2,0,1.3,-1
1,149,2,3,0,2.08,1
1,150,1,1,1,0.25,1
1,150,2,2,1,0.44,1
1,150,3,3,1,0.47,1
1,151,2,1,0,0.56,1
1,151,3,2,0,0.65,1
1,151,1,3,0,3.84,1
1,152,3,1,1,0.18,1
1,152,2,2,1,0.51,1
1,152,1,3,1,1.25,1
1,153,3,1,0,0.23,1
1,153,2,2,0,1.02,1
1,153,1,3,0,1.11,1
1,154,1,1,0,0.47,1
1,154,3,2,0,0.59,1
1,154,2,3,0,1.1,-1
1,155,1,1,0,0.18,1
1,155,3,2,0,0.37,1
1,155,2,3,0,0.96,1
1,156,2,1,0,0.3,1
1,156,1,2,0,0.52,-1
1,156,3,3,0,0.69,1
1,157,3,1,0,0.46,1
1,157,1,2,0,0.51,1
1,157,2,3,0,1.59,1
1,158,3,1,0,1.24,1
1,158,2,2,0,2.88,-1
1,158,1,3,0,3.24,1
1,159,3,1,1,0.27,1
1,159,1,2,1,0.4,1
1,159,2,3,1,0.47,1
1,160,3,1,0,0.39,1
1,160,1,2,0,0.67,1
1,160,2,3,0,1.03,1
1,161,2,1,0,0.52,1
1,161,3,2,0,1.49,-1
1,161,1,3,0,2.19,-1
1,162,3,1,1,0.98,-1
1,162,1,2,1,1.72,1
1,162,2,3,1,3.18,1
1,163,3,1,0,0.99,1
1,163,1,2,0,1.12,-1
1,163,2,3,0,1.56,-1
1,164,2,1,1,0.23,1
1,164,1,2,1,0.42,-1
1,164,3,3,1,1.79,1
1,165,3,1,0,0.26,1
1,165,1,2,0,0.38,1
1,165,2,3,0,0.45,1
1,166,3,1,1,0.23,1
1,166,2,2,1,0.95,1
1,166,1,3,1,1.47,1
1,167,1,1,0,0.4,1
1,167,3,2,0,0.86,1
1,167,2,3,0,0.91,1
1,168,3,1,0,0.25,1
1,168,1,2,0,0.27,-1
1,168,2,3,0,1.04,-1
1,169,3,1,1,0.57,1
1,169,2,2,1,0.61,1
1,169,1,3,1,5.09,1
1,170,3,1,0,0.39,1
1,170,2,2,0,1.56,1
1,170,1,3,0,2.57,-1
1,171,3,1,1,0.59,1
1,171,2,2,1,0.93,-1
1,171,1,3,1,1.67,1
1,172,2,1,1,0.56,1
1,172,3,2,1,0.61,-1
1,172,1,3,1,0.99,-1
1,173,2,1,1,0.4,1
1,173,1,2,1,0.57,-1
1,173,3,3,1,1.21,-1
1,174,3,1,0,1.06,1
1,174,2,2,0,1.68,-1
1,174,1,3,0,3.35,-1
1,175,2,1,1,0.44,1
1,175,3,2,1,1.29,1
1,175,1,3,1,1.99,1
1,176,2,1,1,0.5,1
1,176,3,2,1,1.12,1
1,176,1,3,1,2.14,-1
1,177,2,1,1,0.45,1
1,177,1,2,1,0.7,1
1,177,3,3,1,1.81,1
1,178,3,1,0,0.47,1
1,178,1,2,0,0.52,1
1,178,2,3,0,0.75,1
1,179,2,1,1,0.63,-1
1,179,1,2,1,1.54,-1
1,179,3,3,1,2.4,1
1,180,3,1,0,0.27,-1
1,180,2,2,0,0.33,-1
1,180,1,3,0,2.68,1
1,181,2,1,1,0.11,1
1,181,3,2,1,0.89,1
1,181,1,3,1,1.12,1
1,182,2,1,1,0.66,1
1,182,3,2,1,0.88,-1
1,182,1,3,1,1.43,1
1,183,3,1,1,0.14,1
1,183,2,2,1,0.25,1
1,183,1,3,1,0.4,1
1,184,2,1,0,0.25,1
1,184,3,2,0,0.36,1
1,184,1,3,0,1.34,1
1,185,3,1,1,0.64,1
1,185,2,2,1,0.83,1
1,185,1,3,1,1.05,1
1,186,3,1,1,0.21,1
1,186,2,2,1,0.29,1
1,186,1,3,1,0.82,1
1,187,2,1,1,0.7,1
1,187,1,2,1,0.76,-1
1,187,3,3,1,1.39,-1
1,188,1,1,1,0.66,-1
1,188,2,2,1,1.48,-1
1,188,3,3,1,1.62,1
1,189,2,1,0,0.25,1
1,189,3,2,0,0.79,1
1,189,1,3,0,1.94,1
1,190,3,1,0,0.85,1
1,190,2,2,0,0.86,1
1,190,1,3,0,1.67,1
1,191,2,1,1,0.35,1
1,191,3,2,1,0.38,1
1,191,1,3,1,0.72,1
1,192,1,1,1,0.36,1
1,192,3,2,1,0.75,1
1,192,2,3,1,2.23,1
1,193,3,1,1,0.7,1
1,193,2,2,1,0.87,1
1,193,1,3,1,1.25,-1
1,194,1,1,0,0.23,1
1,194,2,2,0,0.87,1
1,194,3,3,0,1.59,1
1,195,3,1,0,0.27,1
1,195,2,2,0,0.97,1
1,195,1,3,0,1.64,-1
1,196,2,1,0,0.32,-1
1,196,1,2,0,0.67,1
1,196,3,3,0,1.31,1
1,197,3,1,0,0.34,1
1,197,1,2,0,0.41,1
1,197,2,3,0,0.53,1
1,198,1,1,1,0.3,1
1,198,2,2,1,0.48,1
1,198,3,3,1,0.76,1
1,199,1,1,1,0.31,1
1,199,3,2,1,0.77,1
1,199,2,3,1,1.09,1
1,200,1,1,1,0.25,1
1,200,3,2,1,1.28,1
1,200,2,3,1,1.67,1
1,201,2,1,1,0.88,1
1,201,3,2,1,1.03,1
1,201,1,3,1,1.24,-1
1,202,1,1,1,0.44,1
1,202,2,2,1,0.81,-1
1,202,3,3,1,2.22,1
1,203,3,1,1,0.68,1
1,203,2,2,1,1.39,1
1,203,1,3,1,2.1,1
1,204,3,1,1,0.3,1
1,204,1,2,1,0.35,1
1,204,2,3,1,0.39,1
1,205,2,1,1,0.36,-1
1,205,1,2,1,0.72,1
1,205,3,3,1,1.08,1
1,206,1,1,1,0.15,1
1,206,3,2,1,0.24,1
1,206,2,3,1,0.52,-1
1,207,3,1,1,0.24,1
1,207,2,2,1,0.44,1
1,207,1,3,1,0.57,1
1,208,1,1,0,0.64,1
1,208,2,2,0,1.37,1
1,208,3,3,0,1.72,1
1,209,3,1,1,0.25,1
1,209,2,2,1,0.5,1
1,209,1,3,1,1.51,1
1,210,2,1,1,0.7,-1
1,210,1,2,1,0.83,1
1,210,3,3,1,1.45,1
1,211,3,1,0,0.38,1
1,211,1,2,0,0.85,1
1,211,2,3,0,1.78,1
1,212,2,1,0,0.35,-1
1,212,3,2,0,0.37,1
1,212,1,3,0,0.4,1
1,213,3,1,0,0.59,1
1,213,2,2,0,0.88,1
1,213,1,3,0,1.35,1
1,214,3,1,1,0.87,1
1,214,2,2,1,1.24,1
1,214,1,3,1,2.58,1
1,215,2,1,1,0.31,1
1,215,3,2,1,0.32,1
1,215,1,3,1,2.35,-1
1,216,3,1,0,0.85,-1
1,216,1,2,0,1.25,1
1,216,2,3,0,1.55,1
1,217,3,1,0,0.64,1
1,217,1,2,0,0.79,1
1,217,2,3,0,1.77,1
1,218,2,1,0,0.3,1
1,218,1,2,0,1.02,-1
1,218,3,3,0,1.14,1
1,219,2,1,0,0.57,1
1,219,3,2,0,0.99,1
1,219,1,3,0,1.46,-1
1,220,3,1,1,1.16,-1
1,220,2,2,1,1.25,1
1,220,1,3,1,1.3,1
1,221,1,1,0,0.49,1
1,221,2,2,0,0.9,1
1,221,3,3,0,1.65,-1
1,222,2,1,0,0.15,1
1,222,1,2,0,1.24,-1
1,222,3,3,0,1.74,1
1,223,3,1,0,0.3,1
1,223,1,2,0,0.37,1
1,223,2,3,0,0.7,-1
1,224,3,1,0,0.32,1
1,224,1,2,0,1.28,1
1,224,2,3,0,1.44,1
1,225,1,1,1,0.37,1
1,225,2,2,1,0.96,-1
1,225,3,3,1,1.7,1
1,226,3,1,0,0.35,1
1,226,1,2,0,1.32,-1
1,226,2,3,0,2.32,-1
1,227,3,1,0,0.55,-1
1,227,1,2,0,0.86,1
1,227,2,3,0,2.73,-1
1,228,3,1,0,0.29,1
1,228,2,2,0,0.91,1
1,228,1,3,0,1.32,1
1,229,2,1,1,0.27,1
1,229,1,2,1,0.37,1
1,229,3,3,1,0.59,1
1,230,3,1,1,0.31,1
1,230,1,2,1,0.76,1
1,230,2,3,1,1.03,1
1,231,1,1,0,0.44,1
1,231,3,2,0,0.7,-1
1,231,2,3,0,1.15,1
1,232,1,1,0,0.19,1
1,232,2,2,0,0.24,1
1,232,3,3,0,0.31,1
1,233,1,1,0,0.82,1
1,233,2,2,0,0.88,1
1,233,3,3,0,0.96,1
1,234,2,1,1,0.26,1
1,234,1,2,1,0.71,1
1,234,3,3,1,0.97,1
1,235,3,1,0,0.25,1
1,235,2,2,0,0.47,1
1,235,1,3,0,1.07,1
1,236,1,1,1,0.4,-1
1,236,2,2,1,0.78,1
1,236,3,3,1,1.01,1
1,237,3,1,0,0.13,1
1,237,2,2,0,0.47,1
1,237,1,3,0,2.56,1
1,238,2,1,1,0.41,1
1,238,3,2,1,0.64,-1
1,238,1,3,1,1.85,-1
1,239,3,1,0,0.67,1
1,239,2,2,0,1.07,-1
1,239,1,3,0,2.28,1
1,240,3,1,1,0.28,1
1,240,2,2,1,0.39,-1
1,240,1,3,1,0.94,1
1,241,3,1,1,1.37,1
1,241,1,2,1,1.66,1
1,241,2,3,1,1.97,-1
1,242,3,1,1,0.4,1
1,242,2,2,1,0.82,1
1,242,1,3,1,1.87,1
1,243,3,1,0,0.6,-1
1,243,1,2,0,1.43,-1
1,243,2,3,0,5.32,1
1,244,1,1,0,0.13,-1
1,244,2,2,0,0.3,1
1,244,3,3,0,1.5,1
1,245,2,1,0,0.42,1
1,245,1,2,0,0.87,1
1,245,3,3,0,1.21,-1
1,246,2,1,0,0.45,1
1,246,3,2,0,0.46,1
1,246,1,3,0,1.01,1
1,247,2,1,1,0.44,1
1,247,3,2,1,0.74,-1
1,247,1,3,1,1.44,1
1,248,2,1,0,0.34,1
1,248,3,2,0,0.56,1
1,248,1,3,0,2.17,1
1,249,1,1,0,0.31,1
1,249,2,2,0,1.02,1
1,249,3,3,0,2.03,1
1,250,2,1,1,0.68,-1
1,250,3,2,1,0.69,1
1,250,1,3,1,1.81,1
1,251,1,1,1,0.49,1
1,251,3,2,1,0.6,1
1,251,2,3,1,0.73,1
1,252,2,1,0,0.4,1
1,252,3,2,0,0.41,1
1,252,1,3,0,2.67,1
1,253,3,1,1,0.93,1
1,253,2,2,1,1.78,-1
1,253,1,3,1,3.39,-1
1,254,1,1,1,0.49,1
1,254,2,2,1,0.5,1
1,254,3,3,1,0.82,1
1,255,2,1,0,0.41,1
1,255,1,2,0,0.58,-1
1,255,3,3,0,1.04,1
1,256,1,1,0,0.33,-1
1,256,3,2,0,0.35,-1
1,256,2,3,0,1.71,-1
1,257,2,1,0,0.71,1
1,257,3,2,0,1.36,1
1,257,1,3,0,1.62,-1
1,258,3,1,1,0.5,1
1,258,1,2,1,0.55,1
1,258,2,3,1,1.8,1
1,259,2,1,1,0.68,1
1,259,3,2,1,0.9,1
1,259,1,3,1,2.11,-1
1,260,2,1,0,0.75,-1
1,260,1,2,0,1.06,1
1,260,3,3,0,1.65,1
1,261,2,1,0,0.37,1
1,261,3,2,0,0.56,1
1,261,1,3,0,0.88,1
1,262,3,1,1,0.62,1
1,262,2,2,1,1.03,1
1,262,1,3,1,1.29,1
1,263,3,1,1,0.49,1
1,263,2,2,1,0.92,1
1,263,1,3,1,1.82,1
1,264,2,1,1,0.13,1
1,264,3,2,1,1.13,1
1,264,1,3,1,2.23,-1
1,265,2,1,0,0.12,1
1,265,1,2,0,0.25,1
1,265,3,3,0,2.07,1
1,266,1,1,0,0.55,1
1,266,2,2,0,1.05,1
1,266,3,3,0,2.11,1
1,267,2,1,0,0.46,1
1,267,1,2,0,1,-1
1,267,3,3,0,1.13,-1
1,268,3,1,0,0.27,-1
1,268,1,2,0,0.57,1
1,268,2,3,0,1.62,1
1,269,1,1,1,0.66,1
1,269,3,2,1,1.17,1
1,269,2,3,1,1.34,1
1,270,1,1,1,0.56,1
1,270,3,2,1,0.8,1
1,270,2,3,1,1.71,1
1,271,1,1,1,0.26,1
1,271,3,2,1,0.43,1
1,271,2,3,1,0.6,1
1,272,3,1,0,0.41,1
1,272,2,2,0,0.65,1
1,272,1,3,0,0.72,1
1,273,3,1,0,0.52,1
1,273,1,2,0,0.7,1
1,273,2,3,0,0.99,-1
1,274,3,1,0,0.27,1
1,274,2,2,0,0.72,1
1,274,1,3,0,1.66,1
1,275,3,1,0,0.82,1
1,275,2,2,0,2.74,1
1,275,1,3,0,2.77,1
1,276,1,1,1,0.3,1
1,276,2,2,1,0.52,1
1,276,3,3,1,0.64,1
1,277,2,1,0,0.68,-1
1,277,1,2,0,1.07,1
1,277,3,3,0,1.88,1
1,278,3,1,1,0.29,1
1,278,1,2,1,0.56,1
1,278,2,3,1,1.67,1
1,279,3,1,1,0.71,1
1,279,2,2,1,2.07,1
1,279,1,3,1,3.31,1
1,280,3,1,1,2.05,1
1,280,1,2,1,2.42,1
1,280,2,3,1,2.98,1
1,281,3,1,0,0.45,1
1,281,1,2,0,0.89,-1
1,281,2,3,0,2.16,1
1,282,1,1,0,0.49,1
1,282,3,2,0,0.87,1
1,282,2,3,0,0.93,1
1,283,2,1,0,0.58,1
1,283,1,2,0,0.71,-1
1,283,3,3,0,0.94,-1
1,284,1,1,0,1.14,1
1,284,3,2,0,1.38,1
1,284,2,3,0,3.02,1
1,285,1,1,1,0.35,1
1,285,3,2,1,0.39,-1
1,285,2,3,1,0.79,1
1,286,1,1,1,0.23,1
1,286,3,2,1,0.42,1
1,286,2,3,1,0.77,1
1,287,3,1,0,0.57,-1
1,287,1,2,0,0.65,1
1,287,2,3,0,0.75,1
1,288,3,1,0,0.39,1
1,288,1,2,0,0.94,-1
1,288,2,3,0,2.88,1
1,289,3,1,1,0.69,1
1,289,2,2,1,2.1,1
1,289,1,3,1,2.54,1
1,290,3,1,0,0.46,1
1,290,2,2,0,1.07,1
1,290,1,3,0,1.22,1
1,291,1,1,0,0.35,1
1,291,2,2,0,0.41,-1
1,291,3,3,0,0.43,1
1,292,3,1,1,0.24,1
1,292,2,2,1,1.26,1
1,292,1,3,1,1.51,1
1,293,3,1,1,0.63,1
1,293,2,2,1,0.92,1
1,293,1,3,1,2.41,1
1,294,3,1,1,0.22,1
1,294,1,2,1,0.26,1
1,294,2,3,1,0.72,1
1,295,2,1,0,0.34,-1
1,295,3,2,0,1.2,1
1,295,1,3,0,1.49,1
1,296,3,1,1,0.2,1
1,296,1,2,1,1.22,1
1,296,2,3,1,3.8,-1
1,297,3,1,0,0.42,1
1,297,2,2,0,0.77,1
1,297,1,3,0,1.16,1
1,298,3,1,1,0.53,1
1,298,1,2,1,1.04,1
1,298,2,3,1,1.1,1
1,299,2,1,1,0.57,1
1,299,3,2,1,1.37,1
1,299,1,3,1,1.7,1
1,300,1,1,0,0.52,1
1,300,3,2,0,0.69,1
1,300,2,3,0,1.28,-1
1,301,1,1,1,0.35,1
1,301,3,2,1,0.53,1
1,301,2,3,1,2.5,1
1,302,2,1,0,0.47,1
1,302,1,2,0,0.58,1
1,302,3,3,0,0.64,1
1,303,2,1,1,0.37,1
1,303,1,2,1,0.4,1
1,303,3,3,1,0.55,1
1,304,3,1,1,0.12,1
1,304,2,2,1,0.22,1
1,304,1,3,1,1.38,1
1,305,2,1,1,0.71,1
1,305,1,2,1,0.8,1
1,305,3,3,1,0.97,1
1,306,1,1,0,0.41,1
1,306,3,2,0,0.86,1
1,306,2,3,0,4.61,1
1,307,1,1,1,0.48,1
1,307,2,2,1,0.55,-1
1,307,3,3,1,1.67,1
1,308,2,1,0,0.52,1
1,308,3,2,0,0.73,1
1,308,1,3,0,1.97,1
1,309,3,1,0,0.26,1
1,309,2,2,0,2.3,-1
1,309,1,3,0,3.12,-1
1,310,3,1,1,0.3,1
1,310,1,2,1,0.84,1
1,310,2,3,1,1.34,1
1,311,2,1,1,0.57,1
1,311,1,2,1,0.88,1
1,311,3,3,1,2.08,1
1,312,1,1,1,0.42,1
1,312,3,2,1,0.46,1
1,312,2,3,1,0.58,1
1,313,3,1,0,0.94,1
1,313,1,2,0,1.21,1
1,313,2,3,0,1.27,1
1,314,3,1,0,0.18,1
1,314,1,2,0,0.24,1
1,314,2,3,0,0.6,1
1,315,1,1,0,0.35,1
1,315,2,2,0,0.48,1
1,315,3,3,0,0.98,1
1,316,2,1,1,0.34,-1
1,316,1,2,1,0.72,1
1,316,3,3,1,1.2,1
1,317,2,1,0,0.13,1
1,317,3,2,0,0.32,1
1,317,1,3,0,0.68,-1
1,318,1,1,0,0.42,1
1,318,2,2,0,0.95,1
1,318,3,3,0,1.51,1
1,319,3,1,0,1.26,1
1,319,1,2,0,1.73,-1
1,319,2,3,0,1.93,1
1,320,3,1,1,0.78,1
1,320,1,2,1,0.88,1
1,320,2,3,1,1.04,-1
1,321,2,1,0,0.38,1
1,321,1,2,0,0.51,-1
1,321,3,3,0,0.63,1
1,322,2,1,0,0.34,1
1,322,3,2,0,0.67,1
1,322,1,3,0,1,1
1,323,2,1,1,0.26,1
1,323,3,2,1,0.47,1
1,323,1,3,1,0.48,-1
1,324,1,1,1,0.14,1
1,324,3,2,1,0.51,1
1,324,2,3,1,1.14,1
1,325,3,1,1,0.47,1
1,325,1,2,1,0.58,1
1,325,2,3,1,1.25,1
1,326,2,1,0,0.14,1
1,326,1,2,0,0.79,-1
1,326,3,3,0,1.36,1
1,327,1,1,1,0.66,1
1,327,3,2,1,0.69,1
1,327,2,3,1,1.84,1
1,328,2,1,0,0.42,-1
1,328,3,2,0,0.43,1
1,328,1,3,0,0.72,1
1,329,3,1,0,0.56,1
1,329,2,2,0,1.63,1
1,329,1,3,0,2.46,1
1,330,3,1,1,0.44,1
1,330,2,2,1,1.65,1
1,330,1,3,1,1.8,-1
1,331,2,1,0,0.17,1
1,331,3,2,0,0.74,1
1,331,1,3,0,2.35,-1
1,332,2,1,0,0.23,-1
1,332,1,2,0,1.16,-1
1,332,3,3,0,1.64,1
1,333,3,1,0,0.23,1
1,333,1,2,0,0.25,-1
1,333,2,3,0,0.52,1
1,334,3,1,0,0.31,1
1,334,1,2,0,0.43,1
1,334,2,3,0,2.44,1
1,335,2,1,1,0.23,1
1,335,1,2,1,0.48,1
1,335,3,3,1,0.53,1
1,336,1,1,0,0.16,1
1,336,3,2,0,0.32,1
1,336,2,3,0,0.58,1
1,337,3,1,0,0.48,1
1,337,2,2,0,0.59,1
1,337,1,3,0,1.98,1
1,338,2,1,1,0.45,1
1,338,3,2,1,0.63,1
1,338,1,3,1,1.19,-1
1,339,3,1,0,0.34,1
1,339,2,2,0,0.39,1
1,339,1,3,0,1.07,1
1,340,1,1,0,0.26,1
1,340,3,2,0,0.73,1
1,340,2,3,0,0.92,1
1,341,1,1,1,0.12,1
1,341,3,2,1,0.3,1
1,341,2,3,1,0.42,1
1,342,3,1,1,0.33,1
1,342,1,2,1,0.71,-1
1,342,2,3,1,1.76,1
1,343,3,1,0,0.38,-1
1,343,1,2,0,0.49,1
1,343,2,3,0,0.78,1
1,344,3,1,0,0.84,1
1,344,2,2,0,1.21,1
1,344,1,3,0,2.08,1
1,345,1,1,1,0.15,1
1,345,2,2,1,0.31,1
1,345,3,3,1,0.43,1
1,346,2,1,1,0.33,1
1,346,3,2,1,0.54,1
1,346,1,3,1,1.39,-1
1,347,2,1,0,0.44,1
1,347,3,2,0,1.43,1
1,347,1,3,0,5.73,1
1,348,1,1,1,0.62,1
1,348,2,2,1,0.63,1
1,348,3,3,1,0.72,1
1,349,3,1,1,0.68,1
1,349,2,2,1,0.93,1
1,349,1,3,1,1.47,1
1,350,2,1,0,0.25,1
1,350,3,2,0,0.28,1
1,350,1,3,0,1.04,-1
1,351,1,1,1,0.15,-1
1,351,3,2,1,0.8,1
1,351,2,3,1,0.95,1
1,352,3,1,0,0.52,1
1,352,2,2,0,2.23,1
1,352,1,3,0,7.28,1
1,353,3,1,1,0.39,1
1,353,2,2,1,1.14,-1
1,353,1,3,1,2.27,1
1,354,1,1,0,0.33,-1
1,354,3,2,0,0.83,-1
1,354,2,3,0,1.21,1
1,355,1,1,1,0.53,1
1,355,3,2,1,0.57,1
1,355,2,3,1,0.58,1
1,356,3,1,0,0.3,1
1,356,2,2,0,0.59,1
1,356,1,3,0,0.61,1
1,357,3,1,1,0.42,1
1,357,1,2,1,0.49,-1
1,357,2,3,1,1.12,1
1,358,1,1,1,0.22,1
1,358,3,2,1,0.74,1
1,358,2,3,1,0.75,1
1,359,1,1,1,0.23,-1
1,359,2,2,1,0.45,1
1,359,3,3,1,1.9,1
1,360,2,1,1,0.12,1
1,360,1,2,1,0.45,1
1,360,3,3,1,0.53,1
1,361,2,1,1,0.43,1
1,361,3,2,1,0.65,1
1,361,1,3,1,2.52,1
1,362,1,1,0,0.73,1
1,362,3,2,0,0.95,1
1,362,2,3,0,2,-1
1,363,2,1,1,0.52,1
1,363,3,2,1,2.06,1
1,363,1,3,1,2.25,1
1,364,3,1,0,0.42,1
1,364,1,2,0,1.53,-1
1,364,2,3,0,1.55,1
1,365,3,1,0,1.05,1
1,365,2,2,0,1.68,1
1,365,1,3,0,1.81,1
1,366,3,1,1,0.65,1
1,366,1,2,1,0.97,1
1,366,2,3,1,2.48,-1
1,367,1,1,0,0.23,1
1,367,3,2,0,0.6,1
1,367,2,3,0,3.07,1
1,368,1,1,0,0.81,-1
1,368,3,2,0,0.89,1
1,368,2,3,0,2.74,-1
1,369,1,1,0,0.36,1
1,369,3,2,0,0.64,-1
1,369,2,3,0,3.3,-1
1,370,1,1,1,0.42,1
1,370,2,2,1,0.62,1
1,370,3,3,1,1.49,1
1,371,3,1,0,0.28,1
1,371,2,2,0,0.52,1
1,371,1,3,0,0.84,-1
1,372,3,1,0,0.64,1
1,372,1,2,0,0.66,-1
1,372,2,3,0,1.85,1
1,373,1,1,0,0.38,1
1,373,3,2,0,0.46,1
1,373,2,3,0,2.32,1
1,374,3,1,1,0.12,1
1,374,2,2,1,0.26,1
1,374,1,3,1,1.88,-1
1,375,3,1,1,0.35,1
1,375,1,2,1,0.43,1
1,375,2,3,1,0.55,1
1,376,3,1,1,0.33,1
1,376,1,2,1,0.41,-1
1,376,2,3,1,0.95,1
1,377,3,1,0,0.3,1
1,377,2,2,0,0.31,-1
1,377,1,3,0,0.42,-1
1,378,3,1,0,0.19,1
1,378,2,2,0,0.51,1
1,378,1,3,0,3.13,-1
1,379,2,1,0,0.46,1
1,379,3,2,0,0.58,1
1,379,1,3,0,0.7,-1
1,380,3,1,1,0.46,1
1,380,1,2,1,0.49,-1
1,380,2,3,1,0.55,1
1,381,3,1,0,0.6,1
1,381,1,2,0,0.99,1
1,381,2,3,0,1.29,1
1,382,1,1,1,0.35,-1
1,382,3,2,1,0.92,1
1,382,2,3,1,1.78,-1
1,383,3,1,1,0.61,1
1,383,2,2,1,0.63,1
1,383,1,3,1,0.88,-1
1,384,3,1,1,0.27,1
1,384,1,2,1,0.55,1
1,384,2,3,1,1.6,1
1,385,2,1,1,0.34,-1
1,385,3,2,1,0.68,1
1,385,1,3,1,1.02,1
1,386,1,1,1,0.25,1
1,386,2,2,1,0.52,1
1,386,3,3,1,0.68,1
1,387,2,1,0,0.66,1
1,387,3,2,0,0.76,1
1,387,1,3,0,1.69,1
1,388,3,1,0,0.27,1
1,388,2,2,0,0.84,-1
1,388,1,3,0,1.45,1
1,389,3,1,0,0.55,1
1,389,1,2,0,0.84,1
1,389,2,3,0,0.93,-1
1,390,3,1,1,0.25,-1
1,390,1,2,1,0.31,1
1,390,2,3,1,0.61,-1
1,391,1,1,0,0.39,-1
1,391,2,2,0,0.65,1
1,391,3,3,0,3.41,1
1,392,3,1,1,0.45,1
1,392,2,2,1,1.15,1
1,392,1,3,1,2.13,1
1,393,2,1,1,0.22,1
1,393,3,2,1,0.24,1
1,393,1,3,1,0.57,1
1,394,1,1,1,0.61,1
1,394,3,2,1,0.91,1
1,394,2,3,1,0.98,1
1,395,1,1,1,0.97,1
1,395,3,2,1,1.42,1
1,395,2,3,1,2.77,1
1,396,2,1,1,0.4,1
1,396,3,2,1,1.19,1
1,396,1,3,1,1.9,1
1,397,2,1,1,0.51,1
1,397,3,2,1,0.92,1
1,397,1,3,1,2.05,1
1,398,3,1,1,0.39,1
1,398,1,2,1,1.05,1
1,398,2,3,1,1.99,1
1,399,1,1,0,0.39,1
1,399,3,2,0,0.42,-1
1,399,2,3,0,1.54,1
1,400,2,1,1,0.22,1
1,400,3,2,1,0.35,1
1,400,1,3,1,0.52,-1
1,401,2,1,0,0.99,1
1,401,3,2,0,1.11,1
1,401,1,3,0,7.29,-1
1,402,2,1,0,0.37,1
1,402,1,2,0,0.5,1
1,402,3,3,0,0.64,1
1,403,1,1,0,0.51,-1
1,403,3,2,0,0.7,-1
1,403,2,3,0,1.03,-1
1,404,2,1,0,1.28,1
1,404,3,2,0,1.4,1
1,404,1,3,0,1.76,1
1,405,1,1,0,0.41,1
1,405,3,2,0,0.72,1
1,405,2,3,0,1.01,-1
1,406,2,1,0,0.12,1
1,406,1,2,0,0.33,1
1,406,3,3,0,0.87,1
1,407,3,1,1,0.71,1
1,407,2,2,1,1.08,1
1,407,1,3,1,2.56,-1
1,408,2,1,1,0.29,1
1,408,3,2,1,0.57,1
1,408,1,3,1,0.67,1
1,409,1,1,1,0.56,1
1,409,2,2,1,0.69,1
1,409,3,3,1,0.93,1
1,410,3,1,1,0.49,1
1,410,1,2,1,0.88,1
1,410,2,3,1,3.93,-1
1,411,2,1,0,0.25,1
1,411,3,2,0,0.32,-1
1,411,1,3,0,0.41,-1
1,412,2,1,1,0.31,1
1,412,1,2,1,0.77,-1
1,412,3,3,1,1.78,1
1,413,3,1,1,0.4,1
1,413,2,2,1,1.55,1
1,413,1,3,1,3.19,1
1,414,2,1,0,0.34,1
1,414,1,2,0,0.64,1
1,414,3,3,0,0.74,1
1,415,2,1,0,0.35,1
1,415,1,2,0,1.54,1
1,415,3,3,0,1.62,1
1,416,3,1,1,0.35,1
1,416,2,2,1,1.06,1
1,416,1,3,1,1.32,-1
1,417,2,1,1,0.31,1
1,417,3,2,1,0.46,-1
1,417,1,3,1,1.51,1
1,418,3,1,0,0.39,-1
1,418,1,2,0,0.81,1
1,418,2,3,0,3.74,1
1,419,3,1,0,0.74,1
1,419,1,2,0,1.23,1
1,419,2,3,0,1.51,-1
1,420,2,1,0,0.93,1
1,420,1,2,0,1.92,1
1,420,3,3,0,7.29,1
1,421,2,1,1,0.28,1
1,421,3,2,1,0.32,1
1,421,1,3,1,0.58,-1
1,422,1,1,1,0.57,-1
1,422,3,2,1,0.62,1
1,422,2,3,1,0.95,-1
1,423,3,1,1,0.47,1
1,423,2,2,1,0.98,1
1,423,1,3,1,1.89,1
1,424,1,1,0,0.19,1
1,424,2,2,0,0.73,1
1,424,3,3,0,1.68,1
1,425,2,1,1,0.31,1
1,425,3,2,1,0.43,1
1,425,1,3,1,0.87,1
1,426,2,1,1,0.4,1
1,426,1,2,1,0.85,-1
1,426,3,3,1,1.47,1
1,427,3,1,1,0.51,1
1,427,1,2,1,0.62,1
1,427,2,3,1,0.94,1
1,428,3,1,1,0.6,1
1,428,2,2,1,0.89,1
1,428,1,3,1,1.7,-1
1,429,3,1,1,0.3,1
1,429,2,2,1,0.99,1
1,429,1,3,1,1.79,1
1,430,3,1,1,0.42,1
1,430,1,2,1,0.68,1
1,430,2,3,1,0.99,1
1,431,1,1,1,0.24,1
1,431,3,2,1,1.3,1
1,431,2,3,1,1.32,1
1,432,2,1,0,0.83,1
1,432,3,2,0,1.03,-1
1,432,1,3,0,1.3,1
1,433,3,1,0,0.33,1
1,433,1,2,0,0.43,1
1,433,2,3,0,0.44,1
1,434,2,1,1,0.34,1
1,434,1,2,1,0.46,-1
1,434,3,3,1,0.65,1
1,435,3,1,1,0.27,1
1,435,1,2,1,0.85,1
1,435,2,3,1,3.48,1
1,436,2,1,1,0.52,1
1,436,1,2,1,0.74,1
1,436,3,3,1,0.85,1
1,437,3,1,1,0.72,1
1,437,1,2,1,0.99,1
1,437,2,3,1,3.77,1
1,438,2,1,0,0.32,1
1,438,3,2,0,0.59,1
1,438,1,3,0,1.79,1
1,439,1,1,0,0.65,-1
1,439,2,2,0,1.16,-1
1,439,3,3,0,1.84,1
1,440,3,1,0,0.35,-1
1,440,1,2,0,1.33,-1
1,440,2,3,0,1.36,1
1,441,2,1,1,0.2,1
1,441,3,2,1,0.62,1
1,441,1,3,1,0.79,-1
1,442,2,1,1,0.62,1
1,442,3,2,1,2.04,1
1,442,1,3,1,2.27,-1
1,443,3,1,1,1.58,1
1,443,1,2,1,1.7,1
1,443,2,3,1,2.28,1
1,444,2,1,0,0.37,1
1,444,1,2,0,0.7,1
1,444,3,3,0,0.99,-1
1,445,1,1,1,0.2,1
1,445,3,2,1,0.55,1
1,445,2,3,1,0.57,1
1,446,3,1,1,0.81,-1
1,446,2,2,1,0.95,-1
1,446,1,3,1,2.08,-1
1,447,3,1,0,0.41,1
1,447,2,2,0,1.26,1
1,447,1,3,0,2.63,1
1,448,2,1,1,0.3,1
1,448,3,2,1,0.31,1
1,448,1,3,1,0.62,1
1,449,1,1,1,0.16,-1
1,449,2,2,1,0.67,1
1,449,3,3,1,0.77,1
1,450,3,1,1,0.33,1
1,450,2,2,1,0.47,-1
1,450,1,3,1,1.39,1
1,451,3,1,1,0.23,1
1,451,2,2,1,0.4,1
1,451,1,3,1,1.35,1
1,452,2,1,0,1.4,1
1,452,1,2,0,2.19,-1
1,452,3,3,0,2.32,1
1,453,2,1,0,0.61,1
1,453,3,2,0,0.84,1
1,453,1,3,0,4.64,1
1,454,2,1,0,0.14,-1
1,454,3,2,0,0.33,1
1,454,1,3,0,2.9,1
1,455,2,1,0,0.8,-1
1,455,3,2,0,1.54,1
1,455,1,3,0,2.13,-1
1,456,2,1,1,0.15,1
1,456,3,2,1,0.84,-1
1,456,1,3,1,1.54,1
1,457,1,1,0,0.56,-1
1,457,2,2,0,0.68,1
1,457,3,3,0,1.2,-1
1,458,3,1,1,0.13,1
1,458,1,2,1,0.82,1
1,458,2,3,1,1.5,1
1,459,3,1,0,0.31,1
1,459,2,2,0,0.53,-1
1,459,1,3,0,2.15,1
1,460,2,1,1,0.38,-1
1,460,1,2,1,0.49,1
1,460,3,3,1,1.52,1
1,461,1,1,0,0.26,-1
1,461,2,2,0,0.58,-1
1,461,3,3,0,1.44,1
1,462,2,1,0,0.23,-1
1,462,3,2,0,0.47,1
1,462,1,3,0,1.61,1
1,463,2,1,0,0.3,1
1,463,3,2,0,0.34,-1
1,463,1,3,0,5.72,1
1,464,1,1,0,0.05,1
1,464,2,2,0,0.57,1
1,464,3,3,0,0.83,1
1,465,2,1,0,0.2,1
1,465,3,2,0,0.66,1
1,465,1,3,0,1.54,1
1,466,2,1,1,0.62,1
1,466,1,2,1,1.06,-1
1,466,3,3,1,1.13,1
1,467,2,1,1,0.51,-1
1,467,1,2,1,0.72,1
1,467,3,3,1,0.76,1
1,468,3,1,1,0.5,1
1,468,1,2,1,1.72,1
1,468,2,3,1,1.95,1
1,469,3,1,0,0.16,1
1,469,2,2,0,0.34,1
1,469,1,3,0,0.54,-1
1,470,2,1,0,0.77,1
1,470,3,2,0,1.08,1
1,470,1,3,0,2.55,1
1,471,3,1,0,0.49,1
1,471,2,2,0,0.59,1
1,471,1,3,0,0.98,1
1,472,2,1,1,0.58,1
1,472,3,2,1,0.76,1
1,472,1,3,1,0.79,1
1,473,3,1,0,0.24,1
1,473,1,2,0,1.71,1
1,473,2,3,0,2.06,1
1,474,1,1,1,0.4,1
1,474,3,2,1,0.63,1
1,474,2,3,1,1.32,1
1,475,3,1,1,0.77,1
1,475,2,2,1,1.16,-1
1,475,1,3,1,3.42,-1
1,476,1,1,0,0.55,1
1,476,3,2,0,1.11,1
1,476,2,3,0,1.23,1
1,477,1,1,1,0.17,1
1,477,3,2,1,0.7,1
1,477,2,3,1,1.54,1
1,478,2,1,0,0.35,-1
1,478,3,2,0,1.08,-1
1,478,1,3,0,1.57,1
1,479,2,1,1,0.28,1
1,479,3,2,1,0.79,1
1,479,1,3,1,0.93,1
1,480,1,1,0,0.27,1
1,480,3,2,0,0.33,1
1,480,2,3,0,1.14,1
1,481,2,1,1,0.35,1
1,481,1,2,1,0.5,1
1,481,3,3,1,1.16,-1
1,482,2,1,1,0.51,1
1,482,3,2,1,0.57,1
1,482,1,3,1,1.04,1
1,483,3,1,1,0.56,1
1,483,2,2,1,0.82,1
1,483,1,3,1,1.59,-1
1,484,2,1,0,0.36,1
1,484,1,2,0,0.5,-1
1,484,3,3,0,0.95,-1
1,485,2,1,0,0.29,1
1,485,1,2,0,0.72,1
1,485,3,3,0,1.54,1
1,486,1,1,1,0.78,1
1,486,3,2,1,1.23,1
1,486,2,3,1,1.47,1
1,487,2,1,0,0.35,1
1,487,1,2,0,1.3,1
1,487,3,3,0,2.67,1
1,488,3,1,1,0.08,1
1,488,1,2,1,0.34,1
1,488,2,3,1,1.14,1
1,489,3,1,0,0.24,1
1,489,2,2,0,1.55,1
1,489,1,3,0,3.12,1
1,490,1,1,1,0.42,1
1,490,2,2,1,1.02,-1
1,490,3,3,1,1.32,-1
1,491,2,1,0,0.59,1
1,491,3,2,0,0.82,1
1,491,1,3,0,2.7,1
1,492,2,1,0,0.27,1
1,492,1,2,0,0.33,1
1,492,3,3,0,1.01,-1
1,493,2,1,1,0.79,1
1,493,3,2,1,0.9,1
1,493,1,3,1,1.71,-1
1,494,1,1,1,0.45,1
1,494,3,2,1,1.28,-1
1,494,2,3,1,3.59,1
1,495,2,1,0,0.24,-1
1,495,3,2,0,0.29,1
1,495,1,3,0,2.59,-1
1,496,1,1,0,0.5,1
1,496,3,2,0,0.94,1
1,496,2,3,0,2.26,1
1,497,2,1,1,0.68,1
1,497,3,2,1,0.85,1
1,497,1,3,1,1.23,1
1,498,3,1,1,0.24,1
1,498,1,2,1,0.53,1
1,498,2,3,1,0.76,1
1,499,1,1,0,0.71,-1
1,499,2,2,0,1.14,1
1,499,3,3,0,2.23,1
1,500,3,1,1,0.23,1
1,500,2,2,1,0.98,1
1,500,1,3,1,1.24,1
1,501,3,1,1,0.16,1
1,501,2,2,1,1.44,1
1,501,1,3,1,4.35,1
1,502,1,1,1,0.4,1
1,502,2,2,1,0.52,1
1,502,3,3,1,0.56,1
1,503,3,1,1,0.23,1
1,503,2,2,1,0.47,1
1,503,1,3,1,0.75,-1
1,504,1,1,0,0.17,1
1,504,3,2,0,1.39,1
1,504,2,3,0,1.46,1
1,505,1,1,1,0.76,-1
1,505,2,2,1,0.86,1
1,505,3,3,1,1.08,1
1,506,3,1,1,0.33,1
1,506,2,2,1,0.38,1
1,506,1,3,1,0.46,1
1,507,2,1,0,0.33,-1
1,507,3,2,0,0.64,1
1,507,1,3,0,1.18,1
1,508,3,1,0,0.56,1
1,508,1,2,0,1.36,-1
1,508,2,3,0,2.94,1
1,509,3,1,1,0.46,1
1,509,1,2,1,0.68,1
1,509,2,3,1,0.69,1
1,510,1,1,1,0.27,1
1,510,2,2,1,0.42,1
1,510,3,3,1,0.82,1
1,511,2,1,1,0.27,1
1,511,3,2,1,0.55,1
1,511,1,3,1,1.86,-1
1,512,1,1,1,0.35,1
1,512,2,2,1,0.38,1
1,512,3,3,1,0.45,1
1,513,1,1,1,0.44,-1
1,513,2,2,1,1.52,1
1,513,3,3,1,1.91,1
1,514,3,1,0,0.12,1
1,514,2,2,0,1.36,-1
1,514,1,3,0,2.36,-1
1,515,1,1,0,0.12,-1
1,515,3,2,0,0.33,1
1,515,2,3,0,1.77,1
1,516,3,1,1,0.47,1
1,516,2,2,1,1.04,-1
1,516,1,3,1,1.11,1
1,517,1,1,1,0.54,1
1,517,2,2,1,0.56,1
1,517,3,3,1,0.67,1
1,518,2,1,0,0.44,1
1,518,1,2,0,0.8,1
1,518,3,3,0,0.98,1
1,519,1,1,0,0.44,1
1,519,2,2,0,0.53,1
1,519,3,3,0,1.58,1
1,520,3,1,0,1.39,1
1,520,1,2,0,1.59,-1
1,520,2,3,0,2.52,1
1,521,3,1,1,0.49,1
1,521,2,2,1,0.86,-1
1,521,1,3,1,4.67,-1
1,522,2,1,0,0.33,1
1,522,1,2,0,0.61,-1
1,522,3,3,0,0.89,1
1,523,3,1,1,0.49,1
1,523,2,2,1,0.59,1
1,523,1,3,1,1.36,1
1,524,3,1,1,0.98,1
1,524,1,2,1,0.99,1
1,524,2,3,1,1.18,1
1,525,1,1,1,0.34,1
1,525,3,2,1,0.37,1
1,525,2,3,1,0.63,-1
1,526,3,1,0,0.55,1
1,526,2,2,0,0.6,1
1,526,1,3,0,2.32,1
1,527,2,1,0,0.36,1
1,527,3,2,0,0.66,1
1,527,1,3,0,1.28,1
1,528,3,1,1,0.29,1
1,528,1,2,1,0.62,-1
1,528,2,3,1,0.9,1
1,529,2,1,1,0.28,-1
1,529,1,2,1,0.47,1
1,529,3,3,1,1.07,1
1,530,3,1,1,0.3,1
1,530,1,2,1,0.82,1
1,530,2,3,1,0.93,-1
1,531,2,1,1,0.61,1
1,531,3,2,1,0.72,1
1,531,1,3,1,1.22,-1
1,532,1,1,0,0.56,1
1,532,2,2,0,0.86,1
1,532,3,3,0,1.5,1
1,533,1,1,0,0.58,-1
1,533,3,2,0,0.78,1
1,533,2,3,0,1.1,-1
1,534,3,1,0,0.16,-1
1,534,2,2,0,0.69,1
1,534,1,3,0,1.14,-1
1,535,1,1,1,0.41,-1
1,535,2,2,1,0.62,1
1,535,3,3,1,1.16,1
1,536,1,1,0,0.31,-1
1,536,3,2,0,0.41,1
1,536,2,3,0,0.6,1
1,537,3,1,1,0.13,1
1,537,1,2,1,0.38,-1
1,537,2,3,1,1.51,1
1,538,1,1,1,0.58,-1
1,538,2,2,1,0.59,-1
1,538,3,3,1,0.83,1
1,539,2,1,0,0.74,-1
1,539,3,2,0,0.99,1
1,539,1,3,0,1.38,-1
1,540,2,1,1,0.25,-1
1,540,3,2,1,0.28,1
1,540,1,3,1,0.39,1
1,541,3,1,0,0.28,1
1,541,2,2,0,0.74,-1
1,541,1,3,0,1.13,-1
1,542,3,1,1,0.69,1
1,542,1,2,1,0.83,-1
1,542,2,3,1,1.7,-1
1,543,3,1,0,0.38,1
1,543,2,2,0,1.62,1
1,543,1,3,0,1.83,-1
1,544,2,1,1,0.3,1
1,544,3,2,1,1.3,1
1,544,1,3,1,2.72,-1
1,545,3,1,0,0.22,1
1,545,2,2,0,1.87,1
1,545,1,3,0,2.3,1
1,546,3,1,1,1.27,1
1,546,2,2,1,2.69,-1
1,546,1,3,1,3.36,1
1,547,1,1,1,0.56,1
1,547,3,2,1,0.69,1
1,547,2,3,1,1.28,1
1,548,2,1,0,1.3,1
1,548,3,2,0,2.5,-1
1,548,1,3,0,3.71,1
1,549,3,1,1,0.12,1
1,549,2,2,1,0.2,1
1,549,1,3,1,3.56,-1
1,550,3,1,0,0.73,1
1,550,1,2,0,1.36,-1
1,550,2,3,0,2.87,1
1,551,3,1,0,0.37,1
1,551,1,2,0,0.46,-1
1,551,2,3,0,0.65,-1
1,552,1,1,1,0.47,1
1,552,2,2,1,0.63,1
1,552,3,3,1,1.29,1
1,553,2,1,0,0.24,1
1,553,3,2,0,0.93,1
1,553,1,3,0,1.93,1
1,554,2,1,0,0.77,-1
1,554,3,2,0,1.38,1
1,554,1,3,0,1.57,1
1,555,3,1,0,0.22,1
1,555,2,2,0,0.53,1
1,555,1,3,0,2.36,1
1,556,2,1,0,0.55,1
1,556,3,2,0,0.91,1
1,556,1,3,0,1.23,1
1,557,2,1,1,0.46,1
1,557,1,2,1,0.81,-1
1,557,3,3,1,3.18,1
1,558,3,1,1,0.35,1
1,558,2,2,1,0.41,1
1,558,1,3,1,0.98,1
1,559,2,1,1,0.49,1
1,559,1,2,1,0.75,1
1,559,3,3,1,1.32,1
1,560,1,1,0,0.32,-1
1,560,2,2,0,0.49,1
1,560,3,3,0,0.76,1
1,561,3,1,0,0.19,1
1,561,2,2,0,1.14,1
1,561,1,3,0,1.36,1
1,562,2,1,0,0.53,-1
1,562,3,2,0,0.86,1
1,562,1,3,0,1.34,1
1,563,2,1,0,1.14,1
1,563,1,2,0,1.49,-1
1,563,3,3,0,2.37,1
1,564,3,1,1,0.55,1
1,564,1,2,1,0.89,1
1,564,2,3,1,1.28,-1
1,565,3,1,0,0.36,1
1,565,1,2,0,0.72,1
1,565,2,3,0,1.56,-1
1,566,1,1,1,0.49,-1
1,566,2,2,1,0.58,1
1,566,3,3,1,0.6,1
1,567,2,1,1,0.22,-1
1,567,3,2,1,0.24,1
1,567,1,3,1,1.42,-1
1,568,2,1,0,0.59,1
1,568,3,2,0,1.76,1
1,568,1,3,0,3.38,1
1,569,3,1,1,0.44,1
1,569,2,2,1,0.58,1
1,569,1,3,1,1.16,1
1,570,3,1,1,0.35,1
1,570,1,2,1,0.36,1
1,570,2,3,1,0.42,1
1,571,3,1,1,0.42,1
1,571,1,2,1,0.53,1
1,571,2,3,1,1.81,1
1,572,3,1,1,0.28,1
1,572,2,2,1,0.72,1
1,572,1,3,1,2.44,-1
1,573,3,1,1,0.15,1
1,573,1,2,1,0.84,1
1,573,2,3,1,1.5,1
1,574,2,1,1,0.62,-1
1,574,3,2,1,0.85,-1
1,574,1,3,1,1.45,1
1,575,3,1,0,0.28,1
1,575,2,2,0,0.89,-1
1,575,1,3,0,5.13,1
1,576,2,1,0,0.49,1
1,576,1,2,0,2.34,1
1,576,3,3,0,2.69,1
1,577,2,1,1,0.24,1
1,577,1,2,1,0.72,1
1,577,3,3,1,0.75,1
1,578,3,1,0,0.43,1
1,578,2,2,0,1.3,1
1,578,1,3,0,2.48,1
1,579,2,1,1,0.45,-1
1,579,1,2,1,1,1
1,579,3,3,1,1.71,1
1,580,3,1,1,0.29,-1
1,580,1,2,1,0.67,1
1,580,2,3,1,1.14,-1
1,581,2,1,1,0.77,1
1,581,3,2,1,1.69,1
1,581,1,3,1,3.2,-1
1,582,3,1,0,0.54,1
1,582,2,2,0,1.15,1
1,582,1,3,0,1.51,1
1,583,2,1,0,0.14,-1
1,583,3,2,0,0.21,1
1,583,1,3,0,3.69,-1
1,584,3,1,0,0.46,1
1,584,1,2,0,0.86,-1
1,584,2,3,0,0.98,1
1,585,2,1,0,0.27,1
1,585,3,2,0,1.36,1
1,585,1,3,0,2.58,-1
1,586,2,1,1,0.34,-1
1,586,3,2,1,0.89,1
1,586,1,3,1,1.47,-1
1,587,3,1,0,0.35,1
1,587,2,2,0,0.87,1
1,587,1,3,0,1.09,-1
1,588,1,1,1,1.19,-1
1,588,2,2,1,1.22,1
1,588,3,3,1,2.82,1
1,589,2,1,0,0.26,1
1,589,1,2,0,0.83,-1
1,589,3,3,0,1.29,-1
1,590,2,1,0,0.3,-1
1,590,3,2,0,0.43,1
1,590,1,3,0,1.22,1
1,591,2,1,1,0.18,1
1,591,1,2,1,0.28,1
1,591,3,3,1,1.15,1
1,592,3,1,1,0.65,1
1,592,1,2,1,0.98,1
1,592,2,3,1,1.18,1
1,593,1,1,0,0.53,1
1,593,3,2,0,0.95,1
1,593,2,3,0,1.06,1
1,594,1,1,1,0.27,1
1,594,3,2,1,0.49,1
1,594,2,3,1,0.55,-1
1,595,3,1,1,0.17,1
1,595,2,2,1,0.33,1
1,595,1,3,1,0.57,1
1,596,3,1,1,0.13,1
1,596,1,2,1,0.35,-1
1,596,2,3,1,1.62,1
1,597,1,1,0,0.43,-1
1,597,2,2,0,0.45,-1
1,597,3,3,0,1.66,-1
1,598,2,1,0,0.27,1
1,598,1,2,0,0.49,1
1,598,3,3,0,1.76,1
1,599,3,1,1,0.77,1
1,599,2,2,1,1.98,1
1,599,1,3,1,2.38,1
1,600,2,1,0,0.34,-1
1,600,1,2,0,0.67,-1
1,600,3,3,0,0.72,1
1,601,2,1,0,0.25,1
1,601,3,2,0,0.68,-1
1,601,1,3,0,0.87,1
1,602,3,1,1,0.25,1
1,602,1,2,1,1.1,1
1,602,2,3,1,1.84,1
1,603,3,1,0,0.17,1
1,603,2,2,0,0.33,1
1,603,1,3,0,0.57,-1
1,604,3,1,1,0.65,1
1,604,2,2,1,0.67,1
1,604,1,3,1,7.73,1
1,605,2,1,1,0.33,1
1,605,3,2,1,1.17,1
1,605,1,3,1,2.62,1
1,606,1,1,1,0.25,1
1,606,2,2,1,1.55,1
1,606,3,3,1,1.89,1
1,607,1,1,0,0.33,1
1,607,2,2,0,0.42,1
1,607,3,3,0,1.3,1
1,608,3,1,1,0.63,1
1,608,2,2,1,0.94,1
1,608,1,3,1,1.82,-1
1,609,3,1,0,0.27,1
1,609,2,2,0,0.33,-1
1,609,1,3,0,0.51,1
1,610,1,1,0,0.27,1
1,610,3,2,0,0.64,1
1,610,2,3,0,0.66,1
1,611,2,1,0,0.32,1
1,611,1,2,0,0.41,1
1,611,3,3,0,0.81,1
1,612,1,1,1,0.32,-1
1,612,3,2,1,0.78,1
1,612,2,3,1,1.72,-1
1,613,3,1,0,0.22,1
1,613,2,2,0,0.75,1
1,613,1,3,0,1.92,1
1,614,3,1,1,0.53,1
1,614,2,2,1,1.49,1
1,614,1,3,1,1.6,-1
1,615,3,1,1,0.26,1
1,615,2,2,1,1.27,1
1,615,1,3,1,1.91,1
1,616,3,1,0,0.12,1
1,616,1,2,0,0.91,1
1,616,2,3,0,1.2,1
1,617,2,1,1,0.31,1
1,617,1,2,1,0.41,1
1,617,3,3,1,0.92,1
1,618,3,1,1,0.33,1
1,618,1,2,1,0.62,-1
1,618,2,3,1,1.48,1
1,619,3,1,0,0.37,1
1,619,1,2,0,0.54,1
1,619,2,3,0,1.92,-1
1,620,1,1,1,0.65,1
1,620,3,2,1,0.82,1
1,620,2,3,1,1.31,1
1,621,2,1,0,1.19,1
1,621,1,2,0,1.47,1
1,621,3,3,0,2.17,1
1,622,1,1,0,0.76,-1
1,622,3,2,0,0.85,1
1,622,2,3,0,0.86,-1
1,623,1,1,0,0.25,1
1,623,2,2,0,1.66,1
1,623,3,3,0,2.84,1
1,624,3,1,0,0.2,1
1,624,2,2,0,1.53,-1
1,624,1,3,0,2.74,-1
1,625,3,1,0,0.22,1
1,625,1,2,0,0.4,1
1,625,2,3,0,0.79,-1
1,626,1,1,0,0.19,1
1,626,2,2,0,0.26,1
1,626,3,3,0,0.79,1
1,627,1,1,0,0.89,1
1,627,3,2,0,1.11,1
1,627,2,3,0,2.5,1
1,628,2,1,1,0.35,-1
1,628,3,2,1,0.43,-1
1,628,1,3,1,0.93,1
1,629,1,1,1,0.42,1
1,629,2,2,1,0.9,1
1,629,3,3,1,0.93,1
1,630,3,1,0,0.39,-1
1,630,1,2,0,0.44,1
1,630,2,3,0,1.3,1
1,631,3,1,0,0.32,1
1,631,2,2,0,0.34,-1
1,631,1,3,0,0.59,1
1,632,2,1,1,0.27,1
1,632,1,2,1,0.46,1
1,632,3,3,1,0.66,1
1,633,1,1,0,0.4,-1
1,633,2,2,0,0.43,1
1,633,3,3,0,0.69,1
1,634,3,1,0,0.17,1
1,634,1,2,0,0.24,1
1,634,2,3,0,1.85,1
1,635,1,1,1,0.34,1
1,635,3,2,1,1.02,1
1,635,2,3,1,1.32,1
1,636,1,1,0,0.55,1
1,636,3,2,0,0.56,1
1,636,2,3,0,1.37,1
1,637,3,1,0,1.03,1
1,637,2,2,0,1.12,1
1,637,1,3,0,1.97,1
1,638,3,1,0,0.47,1
1,638,1,2,0,0.54,1
1,638,2,3,0,1.23,1
1,639,1,1,1,0.82,1
1,639,2,2,1,1.07,1
1,639,3,3,1,1.14,1
1,640,2,1,1,0.3,1
1,640,1,2,1,0.62,1
1,640,3,3,1,0.68,1
1,641,1,1,0,0.46,1
1,641,2,2,0,0.47,1
1,641,3,3,0,0.62,1
1,642,2,1,1,0.43,1
1,642,3,2,1,0.47,1
1,642,1,3,1,2.81,1
1,643,2,1,0,0.34,1
1,643,3,2,0,0.37,1
1,643,1,3,0,1.71,-1
1,644,3,1,0,0.27,-1
1,644,1,2,0,1.7,1
1,644,2,3,0,2.06,1
1,645,3,1,0,0.66,1
1,645,1,2,0,0.83,1
1,645,2,3,0,0.99,1
1,646,3,1,1,0.4,1
1,646,2,2,1,0.48,1
1,646,1,3,1,0.64,-1
1,647,1,1,1,0.3,1
1,647,2,2,1,0.55,-1
1,647,3,3,1,0.63,1
1,648,3,1,1,0.42,1
1,648,2,2,1,0.71,1
1,648,1,3,1,2.1,1
1,649,1,1,0,0.39,-1
1,649,3,2,0,1.33,1
1,649,2,3,0,6.07,1
1,650,3,1,0,0.26,1
1,650,2,2,0,0.77,1
1,650,1,3,0,0.85,-1
1,651,3,1,0,0.69,1
1,651,2,2,0,1.44,1
1,651,1,3,0,1.65,1
1,652,1,1,1,0.98,-1
1,652,2,2,1,1.52,1
1,652,3,3,1,3.45,1
1,653,3,1,1,0.87,1
1,653,1,2,1,2.21,1
1,653,2,3,1,2.76,-1
1,654,1,1,0,0.72,1
1,654,2,2,0,1.2,1
1,654,3,3,0,1.43,1
1,655,2,1,1,0.37,1
1,655,1,2,1,0.65,1
1,655,3,3,1,1.88,1
1,656,2,1,1,0.83,1
1,656,1,2,1,1.09,1
1,656,3,3,1,1.1,1
1,657,2,1,0,0.36,1
1,657,3,2,0,0.41,1
1,657,1,3,0,1.39,-1
1,658,2,1,1,1.11,1
1,658,1,2,1,1.63,1
1,658,3,3,1,2.25,1
1,659,2,1,1,1.14,1
1,659,3,2,1,1.35,1
1,659,1,3,1,2.04,1
1,660,3,1,0,0.54,1
1,660,2,2,0,1.04,-1
1,660,1,3,0,1.28,1
1,661,3,1,0,0.25,1
1,661,2,2,0,0.68,1
1,661,1,3,0,1.76,1
1,662,1,1,0,0.35,-1
1,662,2,2,0,0.72,1
1,662,3,3,0,2.18,1
1,663,3,1,0,0.39,1
1,663,2,2,0,0.45,1
1,663,1,3,0,0.62,-1
1,664,3,1,1,0.37,1
1,664,2,2,1,0.45,1
1,664,1,3,1,1.24,1
1,665,1,1,1,0.41,1
1,665,3,2,1,0.43,1
1,665,2,3,1,0.86,1
1,666,1,1,0,0.54,-1
1,666,3,2,0,1.15,1
1,666,2,3,0,1.6,1
1,667,3,1,1,1.09,1
1,667,1,2,1,1.17,-1
1,667,2,3,1,1.38,1
1,668,2,1,1,0.71,1
1,668,3,2,1,0.78,1
1,668,1,3,1,1.75,1
1,669,2,1,1,0.6,1
1,669,3,2,1,1.3,1
1,669,1,3,1,2.58,1
1,670,1,1,0,0.66,1
1,670,3,2,0,0.68,-1
1,670,2,3,0,0.97,1
1,671,1,1,0,0.42,1
1,671,2,2,0,0.63,1
1,671,3,3,0,1.91,-1
1,672,1,1,1,0.4,1
1,672,2,2,1,1.38,1
1,672,3,3,1,1.74,1
1,673,3,1,0,0.67,1
1,673,2,2,0,0.89,1
1,673,1,3,0,1.5,-1
1,674,2,1,0,0.39,1
1,674,3,2,0,0.65,1
1,674,1,3,0,1.07,-1
1,675,2,1,0,0.56,1
1,675,3,2,0,0.72,1
1,675,1,3,0,1.36,1
1,676,1,1,0,0.94,-1
1,676,2,2,0,1.49,1
1,676,3,3,0,1.65,1
1,677,2,1,1,0.34,1
1,677,3,2,1,0.46,1
1,677,1,3,1,4.82,1
1,678,1,1,0,0.24,-1
1,678,2,2,0,0.76,1
1,678,3,3,0,2.1,1
1,679,3,1,1,0.27,1
1,679,2,2,1,0.36,1
1,679,1,3,1,1.34,1
1,680,3,1,0,0.34,1
1,680,2,2,0,1.12,1
1,680,1,3,0,2.19,1
1,681,2,1,1,0.24,1
1,681,3,2,1,1.15,-1
1,681,1,3,1,2.89,-1
1,682,3,1,1,0.11,1
1,682,2,2,1,0.85,1
1,682,1,3,1,1.26,1
1,683,1,1,0,0.28,1
1,683,3,2,0,0.49,1
1,683,2,3,0,1.86,-1
1,684,2,1,0,0.14,1
1,684,3,2,0,0.22,1
1,684,1,3,0,0.4,1
1,685,2,1,1,0.34,1
1,685,1,2,1,0.58,1
1,685,3,3,1,2.19,1
1,686,2,1,1,0.48,-1
1,686,1,2,1,0.5,1
1,686,3,3,1,0.59,-1
1,687,3,1,1,0.3,1
1,687,2,2,1,0.52,-1
1,687,1,3,1,0.78,1
1,688,3,1,0,0.3,1
1,688,1,2,0,0.48,-1
1,688,2,3,0,2.03,1
1,689,3,1,0,0.39,1
1,689,1,2,0,0.72,1
1,689,2,3,0,0.81,1
1,690,2,1,0,0.97,1
1,690,1,2,0,1.15,1
1,690,3,3,0,1.24,1
1,691,2,1,1,0.17,1
1,691,1,2,1,0.38,1
1,691,3,3,1,1.01,1
1,692,3,1,1,0.12,1
1,692,1,2,1,0.68,1
1,692,2,3,1,1.96,1
1,693,3,1,0,0.32,1
1,693,1,2,0,0.35,1
1,693,2,3,0,0.48,1
1,694,1,1,0,0.37,-1
1,694,2,2,0,0.64,-1
1,694,3,3,0,1.31,1
1,695,2,1,0,0.24,1
1,695,3,2,0,0.5,1
1,695,1,3,0,1.25,-1
1,696,2,1,0,0.55,1
1,696,1,2,0,1.15,1
1,696,3,3,0,1.51,1
1,697,2,1,1,0.67,1
1,697,3,2,1,1.2,1
1,697,1,3,1,3.58,1
1,698,2,1,0,0.24,1
1,698,3,2,0,1.9,1
1,698,1,3,0,2.17,1
1,699,1,1,1,0.23,-1
1,699,2,2,1,0.26,1
1,699,3,3,1,0.63,1
1,700,3,1,0,0.58,1
1,700,2,2,0,1.06,1
1,700,1,3,0,1.79,-1
1,701,1,1,1,0.22,1
1,701,3,2,1,0.49,1
1,701,2,3,1,1.41,-1
1,702,3,1,1,0.14,1
1,702,2,2,1,0.26,1
1,702,1,3,1,1.33,1
1,703,2,1,0,0.38,1
1,703,1,2,0,0.52,1
1,703,3,3,0,2.01,1
1,704,3,1,1,0.55,1
1,704,2,2,1,1.56,1
1,704,1,3,1,3.3,1
1,705,2,1,1,0.6,1
1,705,1,2,1,1,1
1,705,3,3,1,1.5,1
1,706,3,1,0,0.17,1
1,706,1,2,0,0.21,-1
1,706,2,3,0,2.96,1
1,707,1,1,0,0.72,1
1,707,3,2,0,0.73,1
1,707,2,3,0,2.52,1
1,708,3,1,1,0.42,1
1,708,1,2,1,0.78,-1
1,708,2,3,1,1.35,1
1,709,2,1,0,0.61,1
1,709,3,2,0,1.18,1
1,709,1,3,0,1.64,-1
1,710,1,1,0,0.6,1
1,710,3,2,0,1.43,1
1,710,2,3,0,2.74,1
1,711,1,1,1,0.17,1
1,711,2,2,1,0.68,1
1,711,3,3,1,0.77,1
1,712,1,1,0,0.19,-1
1,712,2,2,0,0.42,1
1,712,3,3,0,1.34,1
1,713,1,1,1,0.19,-1
1,713,3,2,1,0.29,1
1,713,2,3,1,0.3,1
1,714,1,1,1,0.23,1
1,714,3,2,1,0.92,1
1,714,2,3,1,0.95,1
1,715,1,1,0,0.44,1
1,715,2,2,0,1.05,1
1,715,3,3,0,1.18,1
1,716,3,1,0,0.28,1
1,716,1,2,0,0.35,-1
1,716,2,3,0,0.65,-1
1,717,3,1,1,0.29,1
1,717,1,2,1,0.72,1
1,717,2,3,1,1.13,1
1,718,2,1,0,0.67,1
1,718,3,2,0,1.08,1
1,718,1,3,0,1.43,-1
1,719,2,1,0,0.42,1
1,719,1,2,0,0.6,1
1,719,3,3,0,1.03,-1
1,720,1,1,1,0.54,1
1,720,2,2,1,0.55,1
1,720,3,3,1,0.84,1
1,721,3,1,1,0.76,1
1,721,2,2,1,0.87,1
1,721,1,3,1,1.47,-1
1,722,1,1,0,0.57,-1
1,722,3,2,0,1.15,1
1,722,2,3,0,1.27,-1
1,723,1,1,1,0.32,-1
1,723,2,2,1,0.64,1
1,723,3,3,1,1.35,-1
1,724,3,1,1,0.24,1
1,724,1,2,1,0.3,-1
1,724,2,3,1,2.21,-1
1,725,3,1,0,0.22,1
1,725,1,2,0,0.77,1
1,725,2,3,0,1.16,1
1,726,2,1,1,0.52,1
1,726,1,2,1,0.66,1
1,726,3,3,1,0.68,1
1,727,2,1,1,0.47,-1
1,727,3,2,1,0.76,1
1,727,1,3,1,1.35,-1
1,728,1,1,1,0.42,1
1,728,3,2,1,0.65,1
1,728,2,3,1,0.74,1
1,729,2,1,1,0.77,1
1,729,1,2,1,0.85,1
1,729,3,3,1,1.65,1
1,730,1,1,0,0.28,-1
1,730,3,2,0,0.88,1
1,730,2,3,0,1.35,-1
1,731,3,1,0,0.27,1
1,731,1,2,0,0.86,1
1,731,2,3,0,0.88,1
1,732,3,1,1,0.66,1
1,732,1,2,1,0.86,1
1,732,2,3,1,3.03,1
1,733,2,1,1,0.76,1
1,733,3,2,1,0.97,1
1,733,1,3,1,1.19,1
1,734,3,1,1,0.07,1
1,734,2,2,1,0.48,1
1,734,1,3,1,0.69,1
1,735,1,1,1,1.2,1
1,735,2,2,1,1.74,1
1,735,3,3,1,1.79,1
1,736,1,1,0,0.45,-1
1,736,3,2,0,0.81,1
1,736,2,3,0,5.26,1
1,737,2,1,1,0.33,1
1,737,1,2,1,0.59,1
1,737,3,3,1,0.78,1
1,738,2,1,0,0.22,-1
1,738,3,2,0,0.29,1
1,738,1,3,0,0.8,1
1,739,1,1,1,0.22,1
1,739,2,2,1,0.59,1
1,739,3,3,1,0.71,1
1,740,3,1,0,0.2,1
1,740,1,2,0,0.52,1
1,740,2,3,0,0.98,1
1,741,3,1,1,0.3,1
1,741,2,2,1,0.54,1
1,741,1,3,1,1.26,1
1,742,2,1,1,0.24,1
1,742,3,2,1,0.28,1
1,742,1,3,1,1.32,-1
1,743,2,1,0,0.28,1
1,743,3,2,0,0.75,1
1,743,1,3,0,2.68,-1
1,744,1,1,0,0.33,1
1,744,3,2,0,0.88,1
1,744,2,3,0,2.14,1
1,745,3,1,1,0.27,1
1,745,1,2,1,0.46,1
1,745,2,3,1,0.73,1
1,746,3,1,1,0.43,1
1,746,2,2,1,0.49,1
1,746,1,3,1,1.42,1
1,747,3,1,0,0.22,1
1,747,1,2,0,1.15,-1
1,747,2,3,0,2.06,-1
1,748,1,1,0,0.32,-1
1,748,2,2,0,0.48,1
1,748,3,3,0,0.68,1
1,749,2,1,0,0.27,1
1,749,3,2,0,0.63,1
1,749,1,3,0,2.52,-1
1,750,1,1,0,0.64,-1
1,750,3,2,0,1.82,1
1,750,2,3,0,2.05,1
1,751,2,1,0,0.2,1
1,751,3,2,0,0.74,1
1,751,1,3,0,2.46,1
1,752,2,1,1,0.35,1
1,752,3,2,1,0.45,1
1,752,1,3,1,2.68,1
1,753,3,1,1,0.56,1
1,753,1,2,1,0.72,1
1,753,2,3,1,1.18,1
1,754,1,1,0,0.42,1
1,754,3,2,0,0.86,1
1,754,2,3,0,1,1
1,755,1,1,1,0.18,1
1,755,2,2,1,0.49,-1
1,755,3,3,1,1.41,1
1,756,1,1,1,0.45,1
1,756,3,2,1,0.87,1
1,756,2,3,1,1.08,-1
1,757,2,1,0,0.72,-1
1,757,3,2,0,0.84,-1
1,757,1,3,0,2.08,1
1,758,1,1,1,0.28,1
1,758,2,2,1,0.63,1
1,758,3,3,1,1.09,1
1,759,1,1,1,0.31,1
1,759,2,2,1,0.69,1
1,759,3,3,1,1.43,1
1,760,1,1,1,0.81,-1
1,760,3,2,1,1.02,1
1,760,2,3,1,1.22,1
1,761,1,1,0,0.25,1
1,761,2,2,0,1.03,1
1,761,3,3,0,1.12,1
1,762,2,1,0,0.6,1
1,762,3,2,0,0.71,-1
1,762,1,3,0,2.02,-1
1,763,3,1,0,0.21,1
1,763,1,2,0,0.3,1
1,763,2,3,0,1.48,1
1,764,1,1,0,0.31,1
1,764,2,2,0,0.83,1
1,764,3,3,0,1.6,1
1,765,3,1,1,0.16,1
1,765,2,2,1,0.52,1
1,765,1,3,1,0.62,1
1,766,3,1,1,0.13,-1
1,766,1,2,1,1.15,1
1,766,2,3,1,4.88,1
1,767,3,1,1,0.56,-1
1,767,2,2,1,0.63,1
1,767,1,3,1,0.77,1
1,768,3,1,1,0.62,1
1,768,1,2,1,0.63,1
1,768,2,3,1,1.23,-1
1,769,3,1,0,0.91,1
1,769,2,2,0,1.47,-1
1,769,1,3,0,1.51,-1
1,770,1,1,0,0.14,-1
1,770,3,2,0,1.34,1
1,770,2,3,0,3.64,1
1,771,1,1,0,0.47,1
1,771,2,2,0,0.51,1
1,771,3,3,0,1.47,1
1,772,2,1,0,0.26,1
1,772,1,2,0,0.58,-1
1,772,3,3,0,0.62,1
1,773,2,1,0,0.64,1
1,773,3,2,0,0.83,-1
1,773,1,3,0,2.3,1
1,774,3,1,0,0.29,1
1,774,2,2,0,0.3,1
1,774,1,3,0,1.41,1
1,775,1,1,1,0.26,1
1,775,3,2,1,0.47,1
1,775,2,3,1,0.54,-1
1,776,3,1,0,0.22,1
1,776,1,2,0,0.68,1
1,776,2,3,0,2.21,1
1,777,1,1,0,0.95,1
1,777,2,2,0,1.61,-1
1,777,3,3,0,2.01,1
1,778,1,1,0,0.73,-1
1,778,3,2,0,0.94,1
1,778,2,3,0,1.54,1
1,779,2,1,0,0.19,-1
1,779,1,2,0,0.55,1
1,779,3,3,0,0.87,1
1,780,1,1,0,0.17,-1
1,780,3,2,0,0.54,1
1,780,2,3,0,1.38,-1
1,781,2,1,0,0.37,1
1,781,3,2,0,0.6,1
1,781,1,3,0,0.99,1
1,782,1,1,1,0.46,1
1,782,2,2,1,0.71,1
1,782,3,3,1,2.28,1
1,783,2,1,1,0.12,1
1,783,3,2,1,0.22,1
1,783,1,3,1,0.84,-1
1,784,3,1,0,0.16,1
1,784,1,2,0,0.51,1
1,784,2,3,0,1.98,-1
1,785,3,1,1,0.29,1
1,785,2,2,1,0.31,1
1,785,1,3,1,1.7,-1
1,786,3,1,1,0.48,1
1,786,2,2,1,0.8,1
1,786,1,3,1,2.11,1
1,787,3,1,0,0.42,1
1,787,1,2,0,0.48,-1
1,787,2,3,0,0.86,-1
1,788,3,1,1,0.85,1
1,788,1,2,1,1.43,-1
1,788,2,3,1,2.73,1
1,789,2,1,0,0.26,1
1,789,1,2,0,1.1,1
1,789,3,3,0,1.45,1
1,790,1,1,0,0.48,1
1,790,3,2,0,0.99,-1
1,790,2,3,0,2.02,-1
1,791,3,1,1,0.26,1
1,791,1,2,1,0.34,1
1,791,2,3,1,0.44,1
1,792,1,1,1,0.45,1
1,792,3,2,1,0.5,1
1,792,2,3,1,0.58,1
1,793,2,1,0,0.22,1
1,793,3,2,0,0.3,1
1,793,1,3,0,0.79,1
1,794,3,1,1,0.81,1
1,794,1,2,1,0.83,1
1,794,2,3,1,0.91,1
1,795,3,1,0,0.49,1
1,795,1,2,0,0.73,1
1,795,2,3,0,3.89,1
1,796,3,1,1,0.3,1
1,796,1,2,1,0.31,-1
1,796,2,3,1,0.64,1
1,797,2,1,1,0.27,1
1,797,3,2,1,0.68,-1
1,797,1,3,1,0.95,1
1,798,2,1,0,0.39,1
1,798,1,2,0,1.04,-1
1,798,3,3,0,2.07,1
1,799,2,1,0,0.52,-1
1,799,1,2,0,1.23,-1
1,799,3,3,0,1.31,1
1,800,3,1,0,0.58,1
1,800,1,2,0,1.28,-1
1,800,2,3,0,1.33,1
1,801,2,1,1,0.45,1
1,801,3,2,1,0.52,1
1,801,1,3,1,3.36,1
1,802,3,1,0,0.39,1
1,802,2,2,0,1.15,1
1,802,1,3,0,1.27,1
1,803,2,1,0,0.31,1
1,803,1,2,0,0.66,1
1,803,3,3,0,1.47,1
1,804,1,1,0,0.25,-1
1,804,3,2,0,0.77,1
1,804,2,3,0,0.87,1
1,805,1,1,0,1.05,1
1,805,3,2,0,1.39,1
1,805,2,3,0,1.64,1
1,806,2,1,1,0.29,-1
1,806,1,2,1,0.34,1
1,806,3,3,1,0.96,-1
1,807,1,1,1,0.24,1
1,807,3,2,1,0.52,1
1,807,2,3,1,1.77,-1
1,808,1,1,0,0.82,-1
1,808,2,2,0,1.48,1
1,808,3,3,0,1.77,1
1,809,3,1,1,0.56,1
1,809,1,2,1,0.76,1
1,809,2,3,1,1.56,1
1,810,3,1,0,0.35,-1
1,810,2,2,0,0.5,1
1,810,1,3,0,1.9,-1
1,811,1,1,1,0.19,1
1,811,2,2,1,0.6,1
1,811,3,3,1,0.94,1
1,812,1,1,0,0.32,1
1,812,2,2,0,0.63,-1
1,812,3,3,0,0.67,-1
1,813,2,1,1,0.48,1
1,813,1,2,1,0.5,1
1,813,3,3,1,2.04,-1
1,814,1,1,1,0.75,1
1,814,2,2,1,1.73,-1
1,814,3,3,1,1.84,1
1,815,1,1,0,0.22,1
1,815,2,2,0,0.78,-1
1,815,3,3,0,1.49,1
1,816,3,1,1,0.12,1
1,816,2,2,1,0.55,1
1,816,1,3,1,2.13,1
1,817,3,1,1,0.21,1
1,817,2,2,1,0.75,-1
1,817,1,3,1,1.3,1
1,818,3,1,0,0.31,1
1,818,2,2,0,0.33,1
1,818,1,3,0,2.36,-1
1,819,2,1,1,0.25,1
1,819,1,2,1,0.87,1
1,819,3,3,1,1.7,1
1,820,3,1,0,0.49,1
1,820,2,2,0,0.52,1
1,820,1,3,0,1.59,1
1,821,3,1,1,0.24,1
1,821,2,2,1,0.25,1
1,821,1,3,1,0.44,1
1,822,2,1,0,0.24,1
1,822,1,2,0,0.36,1
1,822,3,3,0,0.55,1
1,823,1,1,0,0.34,-1
1,823,2,2,0,0.38,1
1,823,3,3,0,1.09,1
1,824,1,1,1,0.78,-1
1,824,3,2,1,0.92,1
1,824,2,3,1,0.97,1
1,825,2,1,0,0.73,1
1,825,1,2,0,1.48,1
1,825,3,3,0,2.34,1
1,826,2,1,0,0.29,1
1,826,3,2,0,0.35,1
1,826,1,3,0,0.52,1
1,827,2,1,0,0.28,1
1,827,1,2,0,0.43,-1
1,827,3,3,0,1.93,1
1,828,1,1,0,0.28,1
1,828,2,2,0,0.58,1
1,828,3,3,0,0.65,1
1,829,3,1,1,0.14,1
1,829,2,2,1,0.52,1
1,829,1,3,1,0.68,1
1,830,2,1,1,0.55,1
1,830,3,2,1,0.64,1
1,830,1,3,1,0.86,1
1,831,3,1,0,0.36,1
1,831,2,2,0,1.22,1
1,831,1,3,0,2.16,1
1,832,2,1,1,1.31,1
1,832,3,2,1,1.4,1
1,832,1,3,1,1.84,1
1,833,1,1,1,0.44,-1
1,833,2,2,1,0.79,1
1,833,3,3,1,0.99,1
1,834,3,1,1,0.63,-1
1,834,1,2,1,0.73,-1
1,834,2,3,1,0.87,1
1,835,3,1,1,0.56,1
1,835,1,2,1,0.63,-1
1,835,2,3,1,1.59,1
1,836,1,1,0,0.28,1
1,836,2,2,0,0.5,1
1,836,3,3,0,0.77,-1
1,837,2,1,0,0.27,-1
1,837,3,2,0,0.34,-1
1,837,1,3,0,1.04,1
1,838,1,1,0,1.22,-1
1,838,2,2,0,1.3,1
1,838,3,3,0,1.31,1
1,839,2,1,1,0.26,1
1,839,3,2,1,0.65,1
1,839,1,3,1,1.14,1
1,840,3,1,1,0.53,1
1,840,1,2,1,0.64,-1
1,840,2,3,1,2.4,1
1,841,2,1,0,0.29,1
1,841,3,2,0,0.94,1
1,841,1,3,0,1.19,1
1,842,1,1,0,0.24,1
1,842,3,2,0,0.92,1
1,842,2,3,0,3.74,1
1,843,3,1,1,0.48,1
1,843,1,2,1,0.59,1
1,843,2,3,1,0.95,1
1,844,1,1,0,1.52,1
1,844,2,2,0,1.79,1
1,844,3,3,0,2.04,1
1,845,3,1,0,0.62,1
1,845,2,2,0,0.87,1
1,845,1,3,0,0.88,-1
1,846,3,1,1,0.62,1
1,846,2,2,1,1.69,1
1,846,1,3,1,1.89,1
1,847,1,1,1,0.36,-1
1,847,2,2,1,1.07,1
1,847,3,3,1,1.2,1
1,848,1,1,1,0.16,-1
1,848,3,2,1,0.17,1
1,848,2,3,1,0.82,1
1,849,2,1,1,0.32,1
1,849,3,2,1,0.85,1
1,849,1,3,1,0.98,1
1,850,3,1,0,0.47,1
1,850,1,2,0,0.73,-1
1,850,2,3,0,4.42,1
1,851,2,1,1,0.42,1
1,851,3,2,1,0.52,1
1,851,1,3,1,0.81,1
1,852,3,1,0,0.26,1
1,852,1,2,0,0.8,1
1,852,2,3,0,2.87,1
1,853,1,1,1,0.31,1
1,853,3,2,1,1.02,1
1,853,2,3,1,1.24,1
1,854,3,1,0,0.73,1
1,854,2,2,0,2.02,1
1,854,1,3,0,2.27,-1
1,855,3,1,1,0.18,-1
1,855,1,2,1,0.24,1
1,855,2,3,1,3.01,1
1,856,2,1,1,0.66,1
1,856,1,2,1,0.78,1
1,856,3,3,1,0.96,-1
1,857,2,1,1,0.46,1
1,857,1,2,1,2.69,-1
1,857,3,3,1,2.88,1
1,858,1,1,0,0.18,-1
1,858,3,2,0,0.82,1
1,858,2,3,0,2.11,-1
1,859,1,1,1,0.42,1
1,859,3,2,1,0.75,1
1,859,2,3,1,0.96,1
1,860,2,1,0,0.28,1
1,860,1,2,0,1.42,-1
1,860,3,3,0,1.5,-1
1,861,2,1,0,0.16,1
1,861,3,2,0,0.17,-1
1,861,1,3,0,0.36,-1
1,862,3,1,0,0.44,1
1,862,2,2,0,1.22,1
1,862,1,3,0,1.47,1
1,863,3,1,1,0.29,1
1,863,1,2,1,0.41,1
1,863,2,3,1,1.69,1
1,864,3,1,0,0.11,1
1,864,2,2,0,0.78,1
1,864,1,3,0,2.15,-1
1,865,1,1,1,0.33,1
1,865,3,2,1,0.35,1
1,865,2,3,1,1.73,1
1,866,1,1,0,0.39,1
1,866,2,2,0,0.42,1
1,866,3,3,0,1.27,1
1,867,3,1,1,0.4,1
1,867,1,2,1,3.78,1
1,867,2,3,1,5,1
1,868,3,1,1,0.44,1
1,868,2,2,1,0.91,1
1,868,1,3,1,1.4,-1
1,869,1,1,1,0.25,1
1,869,2,2,1,0.35,1
1,869,3,3,1,0.48,1
1,870,2,1,0,0.15,-1
1,870,3,2,0,0.33,1
1,870,1,3,0,1.16,1
1,871,2,1,0,0.31,-1
1,871,1,2,0,0.5,1
1,871,3,3,0,2.32,-1
1,872,3,1,0,0.86,-1
1,872,1,2,0,1.06,-1
1,872,2,3,0,1.27,1
1,873,2,1,0,0.29,1
1,873,1,2,0,0.41,-1
1,873,3,3,0,0.57,-1
1,874,3,1,1,0.28,1
1,874,1,2,1,0.54,1
1,874,2,3,1,0.83,1
1,875,3,1,1,0.33,1
1,875,1,2,1,0.35,-1
1,875,2,3,1,1.68,1
1,876,2,1,1,0.43,1
1,876,1,2,1,0.86,1
1,876,3,3,1,0.94,1
1,877,3,1,0,0.45,1
1,877,2,2,0,0.57,1
1,877,1,3,0,3.06,-1
1,878,2,1,1,0.31,1
1,878,1,2,1,0.77,1
1,878,3,3,1,1.29,1
1,879,1,1,1,0.33,1
1,879,3,2,1,0.5,1
1,879,2,3,1,1.58,1
1,880,2,1,0,0.29,1
1,880,3,2,0,0.47,1
1,880,1,3,0,1.63,1
1,881,2,1,0,0.49,-1
1,881,1,2,0,0.57,1
1,881,3,3,0,1.54,1
1,882,3,1,1,0.57,-1
1,882,2,2,1,1.05,1
1,882,1,3,1,2.61,1
1,883,3,1,0,0.74,1
1,883,1,2,0,1.16,-1
1,883,2,3,0,1.86,1
1,884,3,1,0,0.88,1
1,884,2,2,0,0.95,1
1,884,1,3,0,3.01,-1
1,885,2,1,1,0.25,1
1,885,1,2,1,0.76,1
1,885,3,3,1,1.1,-1
1,886,3,1,0,0.32,1
1,886,1,2,0,1.6,-1
1,886,2,3,0,2.44,1
1,887,1,1,0,0.28,1
1,887,2,2,0,0.43,1
1,887,3,3,0,1.48,1
1,888,1,1,0,0.34,1
1,888,3,2,0,0.75,1
1,888,2,3,0,0.88,-1
1,889,3,1,0,0.41,1
1,889,2,2,0,0.64,-1
1,889,1,3,0,2.79,-1
1,890,3,1,1,0.81,1
1,890,2,2,1,0.94,-1
1,890,1,3,1,1.01,1
1,891,3,1,1,0.7,1
1,891,2,2,1,0.81,1
1,891,1,3,1,1.64,-1
1,892,3,1,1,0.62,1
1,892,2,2,1,0.68,1
1,892,1,3,1,2.78,1
1,893,3,1,0,0.56,-1
1,893,2,2,0,0.72,1
1,893,1,3,0,2.39,1
1,894,1,1,0,0.39,-1
1,894,2,2,0,0.72,1
1,894,3,3,0,1.27,1
1,895,1,1,1,0.38,1
1,895,3,2,1,0.47,1
1,895,2,3,1,0.71,1
1,896,2,1,0,0.3,1
1,896,1,2,0,0.38,1
1,896,3,3,0,1.13,-1
1,897,1,1,1,0.36,1
1,897,3,2,1,0.8,1
1,897,2,3,1,0.81,1
1,898,3,1,1,0.72,1
1,898,2,2,1,0.77,1
1,898,1,3,1,1.21,-1
1,899,2,1,0,0.6,1
1,899,3,2,0,0.8,1
1,899,1,3,0,0.96,-1
1,900,3,1,1,0.87,1
1,900,1,2,1,1.32,1
1,900,2,3,1,1.47,1
1,901,2,1,0,0.51,-1
1,901,3,2,0,0.62,1
1,901,1,3,0,0.63,1
1,902,3,1,1,0.51,1
1,902,1,2,1,0.65,1
1,902,2,3,1,2.08,1
1,903,2,1,0,0.23,1
1,903,1,2,0,0.38,-1
1,903,3,3,0,1.02,1
1,904,2,1,0,0.15,1
1,904,1,2,0,1.21,1
1,904,3,3,0,1.42,1
1,905,3,1,0,0.42,1
1,905,1,2,0,0.94,1
1,905,2,3,0,2.51,1
1,906,3,1,1,0.26,1
1,906,1,2,1,0.97,1
1,906,2,3,1,0.98,1
1,907,2,1,0,0.57,1
1,907,1,2,0,0.67,1
1,907,3,3,0,0.83,-1
1,908,3,1,1,0.33,1
1,908,1,2,1,0.65,1
1,908,2,3,1,3.96,1
1,909,3,1,1,0.49,1
1,909,1,2,1,1.79,-1
1,909,2,3,1,2.64,1
1,910,3,1,1,0.46,1
1,910,1,2,1,1.63,1
1,910,2,3,1,1.67,1
1,911,3,1,0,0.54,1
1,911,1,2,0,0.7,-1
1,911,2,3,0,1.05,1
1,912,1,1,1,0.48,1
1,912,3,2,1,0.93,1
1,912,2,3,1,1.66,1
1,913,1,1,0,0.22,1
1,913,3,2,0,0.54,1
1,913,2,3,0,1.71,1
1,914,2,1,1,0.85,1
1,914,3,2,1,0.88,1
1,914,1,3,1,2.04,1
1,915,2,1,1,0.21,-1
1,915,3,2,1,0.58,1
1,915,1,3,1,0.65,1
1,916,1,1,1,0.25,1
1,916,2,2,1,0.56,-1
1,916,3,3,1,0.76,1
1,917,1,1,1,0.17,1
1,917,2,2,1,0.68,1
1,917,3,3,1,0.99,1
1,918,2,1,1,0.13,1
1,918,1,2,1,0.56,1
1,918,3,3,1,0.67,1
1,919,3,1,1,0.31,1
1,919,1,2,1,0.34,1
1,919,2,3,1,1.85,1
1,920,3,1,1,0.18,1
1,920,1,2,1,0.19,1
1,920,2,3,1,0.98,1
1,921,1,1,0,0.36,1
1,921,3,2,0,1.16,1
1,921,2,3,0,1.22,1
1,922,3,1,1,1.32,1
1,922,2,2,1,1.41,1
1,922,1,3,1,1.45,-1
1,923,3,1,0,0.81,-1
1,923,1,2,0,1.19,-1
1,923,2,3,0,2.21,-1
1,924,1,1,0,0.25,-1
1,924,2,2,0,0.31,1
1,924,3,3,0,0.42,1
1,925,1,1,0,0.3,1
1,925,2,2,0,0.68,1
1,925,3,3,0,2.33,1
1,926,2,1,1,0.45,1
1,926,3,2,1,0.76,1
1,926,1,3,1,0.88,1
1,927,3,1,0,0.17,-1
1,927,1,2,0,0.46,1
1,927,2,3,0,3.47,1
1,928,2,1,1,0.61,1
1,928,1,2,1,0.62,1
1,928,3,3,1,1.74,1
1,929,3,1,1,1.03,1
1,929,1,2,1,1.2,1
1,929,2,3,1,1.93,-1
1,930,2,1,0,0.3,1
1,930,3,2,0,0.59,1
1,930,1,3,0,1.77,1
1,931,2,1,0,0.7,1
1,931,3,2,0,0.79,1
1,931,1,3,0,1.29,1
1,932,3,1,1,0.33,1
1,932,2,2,1,1.21,-1
1,932,1,3,1,2.73,1
1,933,3,1,1,0.66,1
1,933,1,2,1,1.03,1
1,933,2,3,1,1.85,1
1,934,2,1,1,0.64,1
1,934,3,2,1,0.99,1
1,934,1,3,1,1.69,1
1,935,2,1,0,0.31,1
1,935,3,2,0,0.72,1
1,935,1,3,0,0.9,1
1,936,3,1,0,0.19,1
1,936,2,2,0,0.55,1
1,936,1,3,0,0.65,1
1,937,3,1,1,0.3,1
1,937,2,2,1,0.47,1
1,937,1,3,1,1.18,-1
1,938,1,1,0,0.49,-1
1,938,3,2,0,0.6,1
1,938,2,3,0,2.01,1
1,939,1,1,1,0.63,1
1,939,2,2,1,1.43,-1
1,939,3,3,1,1.71,1
1,940,2,1,1,0.26,1
1,940,3,2,1,0.39,1
1,940,1,3,1,0.9,1
1,941,2,1,0,0.31,1
1,941,1,2,0,0.38,1
1,941,3,3,0,1.57,1
1,942,3,1,1,0.19,1
1,942,2,2,1,1.53,1
1,942,1,3,1,1.98,-1
1,943,3,1,1,0.2,1
1,943,2,2,1,0.59,1
1,943,1,3,1,2.46,1
1,944,1,1,1,0.44,-1
1,944,3,2,1,0.58,1
1,944,2,3,1,0.82,1
1,945,3,1,0,1.03,1
1,945,1,2,0,1.21,1
1,945,2,3,0,1.37,1
1,946,1,1,0,0.13,1
1,946,2,2,0,0.42,1
1,946,3,3,0,0.85,1
1,947,2,1,1,0.19,1
1,947,1,2,1,1.6,-1
1,947,3,3,1,1.89,1
1,948,1,1,1,0.76,1
1,948,2,2,1,1.11,1
1,948,3,3,1,1.45,-1
1,949,3,1,1,0.19,1
1,949,2,2,1,0.43,1
1,949,1,3,1,1.33,1
1,950,1,1,1,0.71,-1
1,950,3,2,1,0.88,1
1,950,2,3,1,1.91,1
1,951,3,1,1,0.6,1
1,951,1,2,1,1.1,1
1,951,2,3,1,1.18,-1
1,952,2,1,0,0.27,-1
1,952,3,2,0,0.56,1
1,952,1,3,0,1.42,1
1,953,3,1,1,0.24,1
1,953,1,2,1,0.32,1
1,953,2,3,1,0.64,1
1,954,3,1,0,0.55,1
1,954,1,2,0,0.73,1
1,954,2,3,0,2.44,1
1,955,3,1,1,0.48,1
1,955,1,2,1,0.67,1
1,955,2,3,1,1.04,1
1,956,1,1,1,0.34,1
1,956,3,2,1,0.41,1
1,956,2,3,1,0.71,1
1,957,3,1,0,0.43,1
1,957,2,2,0,0.7,1
1,957,1,3,0,1.15,-1
1,958,2,1,1,0.31,-1
1,958,3,2,1,0.53,1
1,958,1,3,1,1.77,1
1,959,1,1,0,0.5,1
1,959,2,2,0,2.44,1
1,959,3,3,0,2.47,1
1,960,3,1,0,0.74,1
1,960,1,2,0,1.04,1
1,960,2,3,0,1.1,1
1,961,2,1,1,0.18,1
1,961,3,2,1,0.39,1
1,961,1,3,1,0.66,1
1,962,2,1,1,0.66,-1
1,962,1,2,1,0.68,-1
1,962,3,3,1,2.25,1
1,963,2,1,1,0.51,1
1,963,1,2,1,0.99,1
1,963,3,3,1,1.62,1
1,964,1,1,1,0.43,1
1,964,3,2,1,1.38,-1
1,964,2,3,1,1.6,1
1,965,2,1,0,0.63,-1
1,965,1,2,0,1.51,1
1,965,3,3,0,1.52,1
1,966,3,1,1,0.33,1
1,966,2,2,1,1.58,-1
1,966,1,3,1,2.86,-1
1,967,1,1,0,0.25,1
1,967,2,2,0,0.28,1
1,967,3,3,0,0.43,1
1,968,1,1,1,0.42,1
1,968,3,2,1,0.51,1
1,968,2,3,1,2.99,1
1,969,1,1,1,0.64,1
1,969,3,2,1,0.72,1
1,969,2,3,1,0.9,1
1,970,1,1,0,0.23,-1
1,970,2,2,0,0.67,1
1,970,3,3,0,1.46,1
1,971,2,1,1,1.13,1
1,971,3,2,1,1.17,1
1,971,1,3,1,1.32,1
1,972,2,1,1,0.57,1
1,972,3,2,1,0.7,-1
1,972,1,3,1,2,1
1,973,2,1,1,0.95,1
1,973,1,2,1,1.47,1
1,973,3,3,1,1.55,-1
1,974,3,1,0,0.26,-1
1,974,2,2,0,0.74,1
1,974,1,3,0,2.56,1
1,975,3,1,1,0.93,1
1,975,2,2,1,1.5,1
1,975,1,3,1,2.65,-1
1,976,3,1,1,0.45,1
1,976,1,2,1,0.58,1
1,976,2,3,1,0.65,1
1,977,1,1,0,0.35,1
1,977,2,2,0,0.79,1
1,977,3,3,0,0.89,1
1,978,2,1,0,0.26,1
1,978,3,2,0,0.46,-1
1,978,1,3,0,0.87,1
1,979,3,1,1,1.16,1
1,979,1,2,1,1.52,1
1,979,2,3,1,1.82,1
1,980,2,1,1,0.64,1
1,980,3,2,1,1.52,1
1,980,1,3,1,3.01,1
1,981,2,1,1,0.47,1
1,981,1,2,1,1.13,1
1,981,3,3,1,2.47,1
1,982,1,1,1,0.25,1
1,982,3,2,1,0.69,1
1,982,2,3,1,1.07,1
1,983,1,1,1,0.2,-1
1,983,2,2,1,0.22,1
1,983,3,3,1,0.42,1
1,984,1,1,1,0.47,-1
1,984,2,2,1,0.69,1
1,984,3,3,1,1.78,1
1,985,2,1,1,0.47,1
1,985,3,2,1,0.67,-1
1,985,1,3,1,1.08,-1
1,986,2,1,1,0.23,1
1,986,1,2,1,0.39,-1
1,986,3,3,1,1.48,1
1,987,3,1,1,0.97,1
1,987,1,2,1,1.26,-1
1,987,2,3,1,2.2,1
1,988,1,1,1,0.38,1
1,988,2,2,1,2,1
1,988,3,3,1,2.13,1
1,989,1,1,0,0.62,-1
1,989,3,2,0,1.24,1
1,989,2,3,0,2.25,1
1,990,2,1,0,0.47,1
1,990,3,2,0,0.65,1
1,990,1,3,0,1.37,1
1,991,1,1,0,1.02,1
1,991,3,2,0,1.27,1
1,991,2,3,0,1.74,-1
1,992,3,1,1,0.24,1
1,992,2,2,1,0.4,1
1,992,1,3,1,2.04,1
1,993,1,1,1,0.34,1
1,993,3,2,1,0.7,1
1,993,2,3,1,1.44,1
1,994,1,1,1,0.49,-1
1,994,3,2,1,1.31,1
1,994,2,3,1,2.03,1
1,995,1,1,0,0.28,1
1,995,2,2,0,0.58,1
1,995,3,3,0,1.05,-1
1,996,2,1,1,0.63,1
1,996,1,2,1,0.66,1
1,996,3,3,1,1.2,1
1,997,3,1,0,0.23,1
1,997,2,2,0,0.28,-1
1,997,1,3,0,0.49,-1
1,998,1,1,0,0.25,1
1,998,3,2,0,0.84,1
1,998,2,3,0,2.31,-1
1,999,1,1,1,0.13,1
1,999,3,2,1,0.16,1
1,999,2,3,1,1.6,1
1,1000,2,1,0,0.53,-1
1,1000,3,2,0,0.66,1
1,1000,1,3,0,1.5,-1
1,1001,3,1,0,0.21,1
1,1001,2,2,0,0.28,1
1,1001,1,3,0,3.45,1
1,1002,1,1,0,0.31,1
1,1002,3,2,0,0.38,1
1,1002,2,3,0,1.06,-1
1,1003,2,1,0,0.46,-1
1,1003,3,2,0,0.74,1
1,1003,1,3,0,1.5,-1
1,1004,3,1,1,0.57,1
1,1004,1,2,1,1.03,-1
1,1004,2,3,1,1.84,1
1,1005,1,1,0,0.42,-1
1,1005,2,2,0,0.43,1
1,1005,3,3,0,0.74,1
1,1006,2,1,0,0.14,1
1,1006,3,2,0,0.44,-1
1,1006,1,3,0,2.23,1
1,1007,1,1,0,0.87,1
1,1007,2,2,0,1.89,1
1,1007,3,3,0,2.11,1
1,1008,2,1,1,0.81,1
1,1008,3,2,1,0.92,1
1,1008,1,3,1,2.73,1
1,1009,3,1,1,0.27,1
1,1009,1,2,1,0.38,1
1,1009,2,3,1,1.22,-1
1,1010,1,1,0,0.46,1
1,1010,3,2,0,0.57,1
1,1010,2,3,0,1.04,1
1,1011,3,1,0,0.6,-1
1,1011,2,2,0,1.22,1
1,1011,1,3,0,3.96,-1
1,1012,2,1,0,0.48,1
1,1012,3,2,0,0.8,1
1,1012,1,3,0,0.87,-1
1,1013,3,1,0,0.4,1
1,1013,2,2,0,0.57,-1
1,1013,1,3,0,1.22,-1
1,1014,3,1,1,0.28,1
1,1014,2,2,1,0.88,1
1,1014,1,3,1,0.9,1
1,1015,1,1,0,0.6,1
1,1015,3,2,0,0.61,-1
1,1015,2,3,0,0.79,1
1,1016,3,1,1,0.43,1
1,1016,2,2,1,0.74,1
1,1016,1,3,1,0.93,1
1,1017,2,1,0,0.21,1
1,1017,3,2,0,0.88,1
1,1017,1,3,0,0.9,1
1,1018,3,1,0,0.45,1
1,1018,2,2,0,0.79,-1
1,1018,1,3,0,2.22,1
1,1019,2,1,1,0.55,1
1,1019,1,2,1,1.11,1
1,1019,3,3,1,2.3,1
1,1020,3,1,0,0.69,1
1,1020,2,2,0,1.2,1
1,1020,1,3,0,1.64,1
1,1021,1,1,0,0.28,-1
1,1021,3,2,0,0.62,1
1,1021,2,3,0,0.98,1
1,1022,3,1,1,0.25,-1
1,1022,1,2,1,0.71,1
1,1022,2,3,1,0.96,1
1,1023,2,1,1,0.56,1
1,1023,3,2,1,0.68,1
1,1023,1,3,1,1.67,1
1,1024,2,1,0,0.22,1
1,1024,1,2,0,0.67,-1
1,1024,3,3,0,2.91,1
1,1025,1,1,0,0.17,-1
1,1025,2,2,0,0.8,1
1,1025,3,3,0,0.84,1
1,1026,3,1,0,0.18,1
1,1026,1,2,0,1.21,1
1,1026,2,3,0,2.19,1
1,1027,3,1,0,0.83,1
1,1027,2,2,0,1.26,-1
1,1027,1,3,0,1.54,1
1,1028,3,1,1,0.43,1
1,1028,1,2,1,1.62,1
1,1028,2,3,1,1.88,1
1,1029,3,1,0,0.75,1
1,1029,2,2,0,1.55,-1
1,1029,1,3,0,2.1,1
1,1030,1,1,1,0.39,1
1,1030,3,2,1,0.53,-1
1,1030,2,3,1,0.75,1
1,1031,2,1,0,0.22,-1
1,1031,1,2,0,0.94,-1
1,1031,3,3,0,1.98,1
1,1032,2,1,0,0.31,1
1,1032,3,2,0,0.36,1
1,1032,1,3,0,0.6,-1
1,1033,3,1,1,0.32,1
1,1033,1,2,1,0.45,1
1,1033,2,3,1,1.62,1
1,1034,3,1,1,0.76,1
1,1034,1,2,1,1.33,-1
1,1034,2,3,1,2.65,1
1,1035,2,1,1,0.57,1
1,1035,3,2,1,1.27,1
1,1035,1,3,1,2.66,1
1,1036,3,1,1,0.17,1
1,1036,2,2,1,0.7,-1
1,1036,1,3,1,1.66,-1
1,1037,3,1,0,0.16,1
1,1037,2,2,0,2.32,1
1,1037,1,3,0,3.83,-1
1,1038,1,1,1,0.18,1
1,1038,2,2,1,0.19,-1
1,1038,3,3,1,0.57,1
1,1039,3,1,1,0.32,1
1,1039,1,2,1,0.44,1
1,1039,2,3,1,0.75,1
1,1040,2,1,1,0.2,1
1,1040,3,2,1,0.81,1
1,1040,1,3,1,1.6,1
1,1041,2,1,0,1.44,-1
1,1041,3,2,0,1.53,1
1,1041,1,3,0,2.11,1
1,1042,1,1,0,0.26,-1
1,1042,3,2,0,0.33,1
1,1042,2,3,0,3.25,1
1,1043,3,1,0,0.13,1
1,1043,1,2,0,1.42,1
1,1043,2,3,0,1.59,-1
1,1044,3,1,0,0.22,1
1,1044,2,2,0,0.38,-1
1,1044,1,3,0,2.91,-1
1,1045,3,1,0,0.3,1
1,1045,1,2,0,1.16,-1
1,1045,2,3,0,2.5,1
1,1046,1,1,0,0.3,-1
1,1046,3,2,0,0.55,-1
1,1046,2,3,0,3,1
1,1047,1,1,1,0.29,-1
1,1047,2,2,1,0.32,1
1,1047,3,3,1,1.66,1
1,1048,1,1,0,0.7,1
1,1048,3,2,0,1.08,1
1,1048,2,3,0,2.98,-1
1,1049,1,1,1,0.61,1
1,1049,3,2,1,0.84,1
1,1049,2,3,1,1,1
1,1050,3,1,0,1.48,1
1,1050,1,2,0,2.68,-1
1,1050,2,3,0,4.02,1
1,1051,3,1,1,0.42,1
1,1051,2,2,1,0.5,1
1,1051,1,3,1,0.61,1
1,1052,2,1,1,0.68,-1
1,1052,1,2,1,2.14,1
1,1052,3,3,1,2.29,1
1,1053,3,1,0,0.61,1
1,1053,1,2,0,1.11,1
1,1053,2,3,0,2.53,1
1,1054,2,1,1,0.2,1
1,1054,3,2,1,0.38,1
1,1054,1,3,1,2.81,-1
1,1055,2,1,0,0.32,1
1,1055,1,2,0,1.4,1
1,1055,3,3,0,1.53,1
1,1056,1,1,1,0.28,1
1,1056,3,2,1,0.5,1
1,1056,2,3,1,0.6,1
1,1057,2,1,1,0.45,1
1,1057,1,2,1,0.61,1
1,1057,3,3,1,0.77,1
1,1058,2,1,0,0.73,1
1,1058,1,2,0,0.74,-1
1,1058,3,3,0,1.98,-1
1,1059,2,1,1,0.63,1
1,1059,1,2,1,0.76,1
1,1059,3,3,1,3.24,1
1,1060,1,1,0,0.36,1
1,1060,3,2,0,0.79,-1
1,1060,2,3,0,1.93,1
1,1061,1,1,0,0.96,-1
1,1061,2,2,0,1.02,-1
1,1061,3,3,0,1.04,1
1,1062,1,1,0,0.19,-1
1,1062,2,2,0,0.39,1
1,1062,3,3,0,1.71,1
1,1063,3,1,1,0.38,1
1,1063,2,2,1,0.68,1
1,1063,1,3,1,0.77,-1
1,1064,1,1,1,1.01,1
1,1064,3,2,1,1.13,1
1,1064,2,3,1,2.52,1
1,1065,3,1,1,0.16,1
1,1065,1,2,1,0.22,1
1,1065,2,3,1,0.91,1
1,1066,1,1,1,0.59,1
1,1066,3,2,1,1,1
1,1066,2,3,1,2.55,1
1,1067,2,1,1,0.83,1
1,1067,1,2,1,1.48,1
1,1067,3,3,1,1.98,1
1,1068,1,1,0,0.47,1
1,1068,2,2,0,0.93,-1
1,1068,3,3,0,1.69,1
1,1069,3,1,1,0.49,1
1,1069,2,2,1,0.88,1
1,1069,1,3,1,1.74,1
1,1070,3,1,1,0.53,1
1,1070,1,2,1,1.03,1
1,1070,2,3,1,1.08,1
1,1071,2,1,1,0.42,1
1,1071,1,2,1,1.1,1
1,1071,3,3,1,1.34,1
1,1072,2,1,0,0.41,1
1,1072,3,2,0,0.46,1
1,1072,1,3,0,1.06,1
1,1073,3,1,0,0.23,1
1,1073,1,2,0,0.81,1
1,1073,2,3,0,1.56,1
1,1074,3,1,0,0.5,1
1,1074,2,2,0,0.54,1
1,1074,1,3,0,0.9,1
1,1075,1,1,1,0.59,-1
1,1075,3,2,1,0.88,1
1,1075,2,3,1,1.19,1
1,1076,3,1,1,0.44,-1
1,1076,1,2,1,0.63,1
1,1076,2,3,1,1.81,1
1,1077,2,1,1,0.68,1
1,1077,3,2,1,0.99,1
1,1077,1,3,1,1.29,-1
1,1078,3,1,0,0.42,-1
1,1078,1,2,0,0.44,1
1,1078,2,3,0,0.72,1
1,1079,1,1,0,0.62,1
1,1079,2,2,0,0.93,1
1,1079,3,3,0,1.63,1
1,1080,2,1,0,0.37,-1
1,1080,1,2,0,1.2,-1
1,1080,3,3,0,1.86,1
1,1081,3,1,1,0.66,-1
1,1081,2,2,1,0.81,-1
1,1081,1,3,1,2.89,1
1,1082,3,1,0,0.16,1
1,1082,1,2,0,1.9,-1
1,1082,2,3,0,2.93,1
1,1083,3,1,1,0.37,1
1,1083,2,2,1,0.81,1
1,1083,1,3,1,1.56,1
1,1084,2,1,0,0.4,1
1,1084,3,2,0,0.48,1
1,1084,1,3,0,0.53,1
1,1085,3,1,1,0.55,1
1,1085,1,2,1,0.56,1
1,1085,2,3,1,0.73,1
1,1086,2,1,1,0.82,1
1,1086,1,2,1,1.14,-1
1,1086,3,3,1,1.16,1
1,1087,1,1,1,0.29,-1
1,1087,2,2,1,0.53,-1
1,1087,3,3,1,0.92,1
1,1088,2,1,0,0.55,1
1,1088,1,2,0,0.6,1
1,1088,3,3,0,0.69,1
1,1089,1,1,0,0.08,-1
1,1089,3,2,0,0.2,1
1,1089,2,3,0,0.95,1
1,1090,2,1,0,0.19,1
1,1090,3,2,0,0.21,1
1,1090,1,3,0,1.11,1
1,1091,3,1,1,0.93,1
1,1091,2,2,1,1.03,1
1,1091,1,3,1,2.57,-1
1,1092,1,1,0,0.41,-1
1,1092,3,2,0,2.52,1
1,1092,2,3,0,4.33,1
1,1093,2,1,0,0.29,-1
1,1093,3,2,0,0.78,1
1,1093,1,3,0,0.94,1
1,1094,3,1,0,1.6,1
1,1094,2,2,0,1.71,1
1,1094,1,3,0,2.64,1
1,1095,3,1,0,0.31,1
1,1095,2,2,0,0.78,1
1,1095,1,3,0,0.85,1
1,1096,3,1,0,0.61,-1
1,1096,1,2,0,2.5,-1
1,1096,2,3,0,2.86,1
1,1097,2,1,1,0.29,1
1,1097,1,2,1,0.34,1
1,1097,3,3,1,0.59,1
1,1098,2,1,0,0.19,-1
1,1098,1,2,0,0.83,-1
1,1098,3,3,0,1.33,1
1,1099,1,1,0,0.98,1
1,1099,3,2,0,1.05,1
1,1099,2,3,0,1.17,1
1,1100,3,1,0,0.43,1
1,1100,1,2,0,0.81,-1
1,1100,2,3,0,1.33,1
1,1101,3,1,1,0.65,-1
1,1101,1,2,1,1.9,1
1,1101,2,3,1,2.17,-1
1,1102,2,1,0,1.33,1
1,1102,1,2,0,2.06,1
1,1102,3,3,0,5.42,-1
1,1103,3,1,1,0.36,1
1,1103,1,2,1,1.92,1
1,1103,2,3,1,4.13,1
1,1104,3,1,0,0.28,-1
1,1104,2,2,0,0.81,1
1,1104,1,3,0,1.01,1
1,1105,1,1,0,0.63,-1
1,1105,2,2,0,1.16,1
1,1105,3,3,0,2.55,1
1,1106,1,1,1,0.19,1
1,1106,2,2,1,0.69,1
1,1106,3,3,1,0.91,-1
1,1107,3,1,0,0.21,1
1,1107,2,2,0,0.47,1
1,1107,1,3,0,0.79,-1
1,1108,3,1,1,0.35,-1
1,1108,2,2,1,0.42,1
1,1108,1,3,1,0.7,1
1,1109,2,1,0,0.51,1
1,1109,3,2,0,1.34,1
1,1109,1,3,0,2.54,-1
1,1110,2,1,0,0.23,1
1,1110,3,2,0,2.3,1
1,1110,1,3,0,3.31,1
1,1111,3,1,0,0.5,1
1,1111,1,2,0,0.92,1
1,1111,2,3,0,2.33,1
1,1112,1,1,1,0.49,-1
1,1112,2,2,1,1.2,1
1,1112,3,3,1,1.28,-1
1,1113,2,1,1,0.11,-1
1,1113,1,2,1,0.39,1
1,1113,3,3,1,0.76,1
1,1114,3,1,1,0.6,1
1,1114,2,2,1,0.64,1
1,1114,1,3,1,0.79,1
1,1115,2,1,1,0.46,1
1,1115,3,2,1,1.15,1
1,1115,1,3,1,2.07,-1
1,1116,2,1,1,0.72,1
1,1116,3,2,1,0.81,1
1,1116,1,3,1,3.25,1
1,1117,1,1,1,0.43,1
1,1117,3,2,1,0.78,1
1,1117,2,3,1,1.02,1
1,1118,1,1,1,0.16,-1
1,1118,3,2,1,0.5,1
1,1118,2,3,1,0.77,1
1,1119,2,1,0,0.46,1
1,1119,3,2,0,1.69,1
1,1119,1,3,0,1.7,1
1,1120,2,1,0,0.44,1
1,1120,3,2,0,0.61,-1
1,1120,1,3,0,1.9,1
1,1121,3,1,0,0.23,1
1,1121,1,2,0,0.26,1
1,1121,2,3,0,0.79,1
1,1122,1,1,0,0.28,1
1,1122,3,2,0,1.16,-1
1,1122,2,3,0,1.93,1
1,1123,2,1,0,0.48,1
1,1123,1,2,0,1.26,1
1,1123,3,3,0,2.09,-1
1,1124,3,1,0,0.23,1
1,1124,1,2,0,0.44,1
1,1124,2,3,0,0.53,1
1,1125,3,1,1,0.72,1
1,1125,1,2,1,0.79,-1
1,1125,2,3,1,2.06,1
1,1126,1,1,1,0.33,1
1,1126,3,2,1,0.44,1
1,1126,2,3,1,2.38,1
1,1127,3,1,0,0.33,1
1,1127,2,2,0,0.67,-1
1,1127,1,3,0,1.1,1
1,1128,1,1,1,0.39,1
1,1128,3,2,1,0.73,-1
1,1128,2,3,1,1.17,-1
1,1129,2,1,1,0.46,1
1,1129,1,2,1,0.83,-1
1,1129,3,3,1,0.88,1
1,1130,1,1,1,0.54,1
1,1130,3,2,1,0.89,1
1,1130,2,3,1,1.55,1
1,1131,3,1,0,0.64,1
1,1131,1,2,0,0.87,1
1,1131,2,3,0,1.87,1
1,1132,3,1,0,0.56,1
1,1132,2,2,0,0.99,1
1,1132,1,3,0,2.9,-1
1,1133,2,1,0,0.16,-1
1,1133,1,2,0,0.5,1
1,1133,3,3,0,0.94,1
1,1134,1,1,0,0.35,1
1,1134,2,2,0,0.4,1
1,1134,3,3,0,0.56,-1
1,1135,3,1,0,0.28,1
1,1135,2,2,0,1,-1
1,1135,1,3,0,2.2,1
1,1136,2,1,1,0.21,1
1,1136,3,2,1,0.83,1
1,1136,1,3,1,1.26,-1
1,1137,1,1,0,0.36,1
1,1137,3,2,0,0.4,1
1,1137,2,3,0,2.51,1
1,1138,3,1,1,0.58,1
1,1138,2,2,1,0.76,1
1,1138,1,3,1,0.87,-1
1,1139,3,1,0,0.98,1
1,1139,2,2,0,1,1
1,1139,1,3,0,2.14,-1
1,1140,2,1,1,0.2,-1
1,1140,1,2,1,0.44,1
1,1140,3,3,1,0.87,1
1,1141,2,1,0,0.45,1
1,1141,1,2,0,2.46,1
1,1141,3,3,0,2.53,1
1,1142,1,1,1,0.19,1
1,1142,3,2,1,0.75,-1
1,1142,2,3,1,0.96,1
1,1143,3,1,0,1.4,1
1,1143,2,2,0,1.71,1
1,1143,1,3,0,2.09,1
1,1144,1,1,0,0.44,-1
1,1144,2,2,0,0.55,1
1,1144,3,3,0,0.71,1
1,1145,2,1,0,0.14,1
1,1145,3,2,0,0.47,1
1,1145,1,3,0,1.49,-1
1,1146,3,1,0,0.43,-1
1,1146,1,2,0,1.38,-1
1,1146,2,3,0,1.43,-1
1,1147,3,1,0,0.69,1
1,1147,2,2,0,1.28,-1
1,1147,1,3,0,5.33,1
1,1148,3,1,0,0.37,1
1,1148,1,2,0,0.38,1
1,1148,2,3,0,1.36,1
1,1149,3,1,1,0.16,1
1,1149,1,2,1,0.94,1
1,1149,2,3,1,1.06,1
1,1150,2,1,0,0.18,-1
1,1150,3,2,0,0.57,1
1,1150,1,3,0,1.45,1
1,1151,3,1,0,0.15,1
1,1151,2,2,0,1.39,1
1,1151,1,3,0,1.53,-1
1,1152,3,1,0,0.27,-1
1,1152,1,2,0,0.42,-1
1,1152,2,3,0,0.5,-1
1,1153,1,1,0,0.4,-1
1,1153,2,2,0,0.88,1
1,1153,3,3,0,1.39,1
1,1154,3,1,1,0.39,1
1,1154,1,2,1,0.74,1
1,1154,2,3,1,1.88,1
1,1155,3,1,1,0.21,-1
1,1155,1,2,1,1.06,1
1,1155,2,3,1,3.04,1
1,1156,1,1,0,0.53,1
1,1156,2,2,0,0.74,1
1,1156,3,3,0,1.58,-1
1,1157,3,1,1,0.28,1
1,1157,1,2,1,0.42,1
1,1157,2,3,1,0.68,1
1,1158,1,1,1,0.15,-1
1,1158,3,2,1,0.28,1
1,1158,2,3,1,0.33,1
1,1159,1,1,0,0.77,-1
1,1159,2,2,0,0.83,1
1,1159,3,3,0,0.88,1
1,1160,1,1,1,0.15,1
1,1160,3,2,1,1.2,1
1,1160,2,3,1,2.08,1
1,1161,2,1,0,1.2,-1
1,1161,3,2,0,1.3,1
1,1161,1,3,0,2.35,-1
1,1162,3,1,1,0.2,1
1,1162,1,2,1,0.44,-1
1,1162,2,3,1,0.92,1
1,1163,1,1,0,0.54,-1
1,1163,3,2,0,0.62,1
1,1163,2,3,0,2.19,-1
1,1164,1,1,0,0.56,1
1,1164,2,2,0,0.73,1
1,1164,3,3,0,0.88,1
1,1165,2,1,1,0.32,1
1,1165,3,2,1,1.71,1
1,1165,1,3,1,2.25,1
1,1166,2,1,0,0.26,1
1,1166,1,2,0,0.39,1
1,1166,3,3,0,0.74,1
1,1167,3,1,0,1.33,-1
1,1167,2,2,0,1.62,1
1,1167,1,3,0,2.21,1
1,1168,3,1,1,0.23,1
1,1168,1,2,1,0.36,-1
1,1168,2,3,1,0.6,1
1,1169,1,1,0,0.43,1
1,1169,2,2,0,1.96,-1
1,1169,3,3,0,2.44,1
1,1170,1,1,1,0.24,-1
1,1170,2,2,1,0.25,1
1,1170,3,3,1,0.44,1
1,1171,3,1,0,0.21,1
1,1171,1,2,0,0.46,-1
1,1171,2,3,0,0.81,1
1,1172,3,1,1,0.29,1
1,1172,2,2,1,0.37,1
1,1172,1,3,1,3.54,1
1,1173,1,1,1,0.43,-1
1,1173,2,2,1,0.66,1
1,1173,3,3,1,0.82,1
1,1174,3,1,0,0.24,1
1,1174,2,2,0,1.68,1
1,1174,1,3,0,1.71,-1
1,1175,2,1,1,0.33,-1
1,1175,1,2,1,0.39,1
1,1175,3,3,1,0.68,1
1,1176,3,1,0,0.24,-1
1,1176,1,2,0,0.49,1
1,1176,2,3,0,1.37,1
1,1177,1,1,0,0.59,1
1,1177,2,2,0,0.84,1
1,1177,3,3,0,1.22,-1
1,1178,3,1,1,0.22,-1
1,1178,2,2,1,0.5,1
1,1178,1,3,1,0.65,1
1,1179,2,1,1,0.24,1
1,1179,1,2,1,0.5,1
1,1179,3,3,1,0.94,1
1,1180,2,1,0,1.07,1
1,1180,1,2,0,1.09,1
1,1180,3,3,0,1.52,1
1,1181,1,1,1,0.25,1
1,1181,3,2,1,0.29,1
1,1181,2,3,1,0.36,1
1,1182,3,1,1,0.21,1
1,1182,1,2,1,0.62,-1
1,1182,2,3,1,0.64,-1
1,1183,3,1,0,0.53,1
1,1183,2,2,0,0.62,1
1,1183,1,3,0,1.88,1
1,1184,3,1,1,0.7,1
1,1184,1,2,1,1.33,-1
1,1184,2,3,1,2.19,1
1,1185,1,1,1,0.39,1
1,1185,2,2,1,0.4,-1
1,1185,3,3,1,0.75,1
1,1186,2,1,0,0.21,1
1,1186,1,2,0,0.26,-1
1,1186,3,3,0,1.74,1
1,1187,3,1,0,0.5,1
1,1187,2,2,0,0.62,1
1,1187,1,3,0,1.81,1
1,1188,3,1,0,0.15,1
1,1188,2,2,0,0.36,-1
1,1188,1,3,0,0.73,-1
1,1189,3,1,1,0.29,1
1,1189,2,2,1,0.48,1
1,1189,1,3,1,1.55,1
1,1190,3,1,0,0.54,-1
1,1190,1,2,0,0.78,1
1,1190,2,3,0,0.95,1
1,1191,2,1,0,0.5,-1
1,1191,3,2,0,1.11,1
1,1191,1,3,0,1.27,1
1,1192,3,1,0,0.42,1
1,1192,2,2,0,1.82,-1
1,1192,1,3,0,2.61,-1
1,1193,1,1,1,0.38,1
1,1193,3,2,1,0.44,1
1,1193,2,3,1,2.17,1
1,1194,3,1,1,0.47,1
1,1194,1,2,1,0.94,1
1,1194,2,3,1,1.35,1
1,1195,2,1,0,0.37,1
1,1195,3,2,0,0.48,-1
1,1195,1,3,0,0.7,1
1,1196,3,1,0,0.21,1
1,1196,1,2,0,0.87,1
1,1196,2,3,0,1.12,1
1,1197,3,1,0,0.37,1
1,1197,1,2,0,0.48,1
1,1197,2,3,0,0.69,1
1,1198,1,1,1,0.32,1
1,1198,2,2,1,1.91,-1
1,1198,3,3,1,2.97,1
1,1199,3,1,1,0.14,1
1,1199,2,2,1,0.29,1
1,1199,1,3,1,0.62,1
1,1200,3,1,0,0.82,1
1,1200,2,2,0,1.12,1
1,1200,1,3,0,2.43,-1
1,1201,1,1,1,0.15,1
1,1201,3,2,1,0.18,-1
1,1201,2,3,1,0.43,1
1,1202,3,1,0,0.42,1
1,1202,2,2,0,1.5,1
1,1202,1,3,0,2.17,-1
1,1203,2,1,1,0.46,1
1,1203,1,2,1,0.47,-1
1,1203,3,3,1,1.97,1
1,1204,1,1,0,0.3,-1
1,1204,3,2,0,0.53,1
1,1204,2,3,0,2.02,1
1,1205,1,1,0,0.51,-1
1,1205,2,2,0,0.98,1
1,1205,3,3,0,2.95,1
1,1206,3,1,0,0.27,1
1,1206,2,2,0,1.01,1
1,1206,1,3,0,2.12,1
1,1207,2,1,1,0.25,1
1,1207,1,2,1,0.57,1
1,1207,3,3,1,0.64,1
1,1208,1,1,1,0.8,1
1,1208,3,2,1,0.84,1
1,1208,2,3,1,1.03,1
1,1209,3,1,0,1.5,1
1,1209,2,2,0,2.2,1
1,1209,1,3,0,3.17,1
1,1210,2,1,0,0.15,1
1,1210,3,2,0,0.45,1
1,1210,1,3,0,1.33,1
1,1211,1,1,0,0.67,1
1,1211,2,2,0,0.68,1
1,1211,3,3,0,1.48,1
1,1212,3,1,1,0.89,1
1,1212,1,2,1,0.96,1
1,1212,2,3,1,1.35,-1
1,1213,3,1,0,0.34,1
1,1213,1,2,0,0.57,1
1,1213,2,3,0,0.91,1
1,1214,2,1,0,0.61,-1
1,1214,3,2,0,0.73,1
1,1214,1,3,0,0.75,-1
1,1215,3,1,0,0.32,1
1,1215,1,2,0,0.6,1
1,1215,2,3,0,0.68,1
1,1216,2,1,0,0.31,1
1,1216,1,2,0,0.49,-1
1,1216,3,3,0,1.95,1
1,1217,3,1,0,0.88,1
1,1217,1,2,0,1.36,-1
1,1217,2,3,0,2.43,1
1,1218,2,1,1,0.44,1
1,1218,1,2,1,1.05,1
1,1218,3,3,1,1.22,1
1,1219,3,1,0,0.66,1
1,1219,2,2,0,1.73,1
1,1219,1,3,0,2.94,-1
1,1220,1,1,0,0.67,1
1,1220,2,2,0,1.35,-1
1,1220,3,3,0,1.37,1
1,1221,2,1,1,0.2,1
1,1221,1,2,1,0.49,1
1,1221,3,3,1,0.76,1
1,1222,1,1,0,0.88,-1
1,1222,3,2,0,0.92,-1
1,1222,2,3,0,1.02,1
1,1223,3,1,1,0.36,-1
1,1223,2,2,1,0.39,1
1,1223,1,3,1,0.98,1
1,1224,3,1,1,0.19,1
1,1224,1,2,1,0.22,-1
1,1224,2,3,1,0.41,-1
1,1225,2,1,1,0.4,1
1,1225,1,2,1,0.52,1
1,1225,3,3,1,0.74,1
1,1226,3,1,1,0.41,1
1,1226,1,2,1,0.45,1
1,1226,2,3,1,0.66,1
1,1227,1,1,0,0.74,1
1,1227,3,2,0,2.53,1
1,1227,2,3,0,3.49,1
1,1228,1,1,1,0.32,1
1,1228,3,2,1,0.95,1
1,1228,2,3,1,0.96,1
1,1229,3,1,1,0.35,1
1,1229,2,2,1,0.45,1
1,1229,1,3,1,1.89,1
1,1230,2,1,0,0.33,1
1,1230,3,2,0,0.55,1
1,1230,1,3,0,1.1,1
1,1231,1,1,0,0.53,-1
1,1231,2,2,0,0.73,1
1,1231,3,3,0,1,1
1,1232,2,1,1,0.28,1
1,1232,1,2,1,0.39,-1
1,1232,3,3,1,1,1
1,1233,1,1,0,0.22,-1
1,1233,3,2,0,0.32,1
1,1233,2,3,0,1.4,1
1,1234,2,1,1,0.3,1
1,1234,1,2,1,0.32,-1
1,1234,3,3,1,0.5,1
1,1235,1,1,0,0.18,-1
1,1235,3,2,0,0.38,1
1,1235,2,3,0,0.39,1
1,1236,2,1,1,0.71,1
1,1236,3,2,1,0.72,1
1,1236,1,3,1,0.98,-1
1,1237,3,1,0,0.3,-1
1,1237,2,2,0,0.78,1
1,1237,1,3,0,0.87,1
1,1238,1,1,0,0.24,1
1,1238,2,2,0,0.53,1
1,1238,3,3,0,2.38,1
1,1239,2,1,0,0.46,1
1,1239,3,2,0,1.41,1
1,1239,1,3,0,1.43,1
1,1240,1,1,1,0.12,1
1,1240,3,2,1,0.32,-1
1,1240,2,3,1,0.59,-1
1,1241,3,1,0,0.76,1
1,1241,1,2,0,0.98,1
1,1241,2,3,0,1.12,-1
1,1242,2,1,0,0.49,1
1,1242,3,2,0,0.93,1
1,1242,1,3,0,1.08,1
1,1243,3,1,0,0.38,1
1,1243,1,2,0,0.69,1
1,1243,2,3,0,1.76,1
1,1244,2,1,1,0.59,1
1,1244,3,2,1,0.78,1
1,1244,1,3,1,1.23,-1
1,1245,2,1,0,1.04,1
1,1245,1,2,0,1.55,1
1,1245,3,3,0,2.9,1
1,1246,1,1,1,0.19,1
1,1246,2,2,1,0.55,1
1,1246,3,3,1,1.1,-1
1,1247,2,1,1,0.42,1
1,1247,1,2,1,1.54,1
1,1247,3,3,1,1.9,1
1,1248,1,1,0,0.27,1
1,1248,3,2,0,0.54,1
1,1248,2,3,0,1.57,1
1,1249,2,1,0,0.58,1
1,1249,3,2,0,1.3,-1
1,1249,1,3,0,5.09,-1
1,1250,3,1,0,0.43,1
1,1250,1,2,0,0.64,1
1,1250,2,3,0,1.43,1
1,1251,2,1,1,0.3,1
1,1251,3,2,1,0.64,1
1,1251,1,3,1,0.67,-1
1,1252,3,1,0,0.25,1
1,1252,2,2,0,0.55,1
1,1252,1,3,0,2.22,-1
1,1253,1,1,0,0.32,1
1,1253,2,2,0,0.55,1
1,1253,3,3,0,1.15,1
1,1254,3,1,0,0.17,1
1,1254,1,2,0,0.72,1
1,1254,2,3,0,0.84,1
1,1255,3,1,0,0.39,1
1,1255,2,2,0,1.01,-1
1,1255,1,3,0,1.26,1
1,1256,2,1,1,0.18,1
1,1256,1,2,1,0.2,1
1,1256,3,3,1,0.38,1
1,1257,1,1,0,0.65,-1
1,1257,3,2,0,0.66,1
1,1257,2,3,0,1.6,1
1,1258,3,1,1,0.69,1
1,1258,2,2,1,1.02,1
1,1258,1,3,1,2.46,1
1,1259,3,1,1,0.32,1
1,1259,1,2,1,0.7,1
1,1259,2,3,1,0.95,1
1,1260,3,1,1,1.13,-1
1,1260,1,2,1,1.36,-1
1,1260,2,3,1,1.79,1
1,1261,2,1,0,0.26,1
1,1261,3,2,0,0.72,1
1,1261,1,3,0,1.12,1
1,1262,3,1,0,0.62,-1
1,1262,1,2,0,0.72,-1
1,1262,2,3,0,0.83,1
1,1263,2,1,0,0.57,1
1,1263,3,2,0,0.85,1
1,1263,1,3,0,2.12,1
1,1264,1,1,0,0.98,1
1,1264,3,2,0,1.66,1
1,1264,2,3,0,1.76,1
1,1265,1,1,1,0.37,1
1,1265,3,2,1,0.48,1
1,1265,2,3,1,0.62,1
1,1266,2,1,0,0.83,-1
1,1266,1,2,0,1.06,1
1,1266,3,3,0,1.16,1
1,1267,2,1,0,0.3,1
1,1267,3,2,0,0.71,-1
1,1267,1,3,0,0.95,-1
1,1268,1,1,1,0.69,1
1,1268,3,2,1,1.97,1
1,1268,2,3,1,1.99,1
1,1269,2,1,1,0.33,1
1,1269,3,2,1,0.43,1
1,1269,1,3,1,0.8,-1
1,1270,3,1,1,0.35,1
1,1270,1,2,1,0.43,1
1,1270,2,3,1,1.04,1
1,1271,3,1,1,0.33,1
1,1271,2,2,1,1.04,1
1,1271,1,3,1,1.37,1
1,1272,3,1,1,0.2,1
1,1272,1,2,1,0.59,1
1,1272,2,3,1,1.29,1
1,1273,1,1,0,0.38,-1
1,1273,3,2,0,0.52,-1
1,1273,2,3,0,0.92,-1
1,1274,2,1,1,1,1
1,1274,1,2,1,1.11,1
1,1274,3,3,1,1.17,1
1,1275,2,1,0,0.81,1
1,1275,3,2,0,0.91,1
1,1275,1,3,0,1.2,1
1,1276,2,1,1,0.32,1
1,1276,3,2,1,0.56,1
1,1276,1,3,1,0.7,-1
1,1277,3,1,1,0.16,1
1,1277,1,2,1,0.63,1
1,1277,2,3,1,1,1
1,1278,2,1,0,0.87,1
1,1278,3,2,0,0.93,1
1,1278,1,3,0,1.1,1
1,1279,3,1,0,0.34,1
1,1279,2,2,0,0.95,1
1,1279,1,3,0,1.53,-1
1,1280,2,1,0,0.45,1
1,1280,1,2,0,0.7,1
1,1280,3,3,0,1.42,1
1,1281,2,1,0,1.52,1
1,1281,3,2,0,2.25,1
1,1281,1,3,0,2.78,1
1,1282,3,1,1,0.35,1
1,1282,1,2,1,0.51,-1
1,1282,2,3,1,0.84,1
1,1283,3,1,1,1.29,1
1,1283,1,2,1,1.65,1
1,1283,2,3,1,2.65,1
1,1284,2,1,0,1.42,1
1,1284,1,2,0,1.62,-1
1,1284,3,3,0,1.97,1
1,1285,2,1,1,0.53,1
1,1285,1,2,1,1.34,1
1,1285,3,3,1,1.55,-1
1,1286,2,1,0,0.24,1
1,1286,3,2,0,0.31,1
1,1286,1,3,0,1.01,1
1,1287,3,1,1,0.27,1
1,1287,1,2,1,0.5,1
1,1287,2,3,1,0.71,1
1,1288,3,1,1,0.57,1
1,1288,2,2,1,0.61,1
1,1288,1,3,1,0.87,-1
1,1289,1,1,0,0.27,-1
1,1289,3,2,0,0.48,1
1,1289,2,3,0,0.85,1
1,1290,3,1,0,0.81,1
1,1290,2,2,0,1.12,-1
1,1290,1,3,0,1.4,-1
1,1291,2,1,0,0.59,1
1,1291,1,2,0,1.48,-1
1,1291,3,3,0,2.37,1
1,1292,1,1,0,0.63,-1
1,1292,3,2,0,0.66,-1
1,1292,2,3,0,0.82,1
1,1293,2,1,1,0.22,-1
1,1293,1,2,1,0.61,-1
1,1293,3,3,1,0.96,1
1,1294,2,1,0,0.74,-1
1,1294,3,2,0,0.83,1
1,1294,1,3,0,1.47,1
1,1295,3,1,0,0.57,1
1,1295,1,2,0,0.94,1
1,1295,2,3,0,2.35,-1
1,1296,1,1,0,0.14,-1
1,1296,2,2,0,0.57,1
1,1296,3,3,0,1.26,1
1,1297,3,1,0,0.75,1
1,1297,2,2,0,0.79,-1
1,1297,1,3,0,1.08,1
1,1298,1,1,1,0.35,1
1,1298,3,2,1,0.47,1
1,1298,2,3,1,1.06,1
1,1299,1,1,1,0.21,1
1,1299,3,2,1,0.59,1
1,1299,2,3,1,0.78,1
1,1300,1,1,0,0.5,1
1,1300,3,2,0,0.64,1
1,1300,2,3,0,1.2,-1
1,1301,3,1,1,0.22,1
1,1301,2,2,1,0.68,1
1,1301,1,3,1,2.47,1
1,1302,3,1,1,1.06,1
1,1302,1,2,1,1.99,-1
1,1302,2,3,1,3.37,1
1,1303,2,1,0,0.35,1
1,1303,1,2,0,0.77,1
1,1303,3,3,0,1.26,1
1,1304,3,1,0,0.75,1
1,1304,1,2,0,1.15,1
1,1304,2,3,0,1.91,1
1,1305,3,1,1,0.12,1
1,1305,1,2,1,0.81,1
1,1305,2,3,1,3.72,1
1,1306,3,1,1,0.27,1
1,1306,1,2,1,0.57,1
1,1306,2,3,1,0.85,1
1,1307,2,1,1,0.84,1
1,1307,3,2,1,0.86,1
1,1307,1,3,1,0.91,-1
1,1308,2,1,1,0.4,1
1,1308,3,2,1,0.88,1
1,1308,1,3,1,1.35,1
1,1309,2,1,1,0.43,1
1,1309,3,2,1,0.44,1
1,1309,1,3,1,0.45,-1
1,1310,1,1,0,0.58,-1
1,1310,2,2,0,0.75,1
1,1310,3,3,0,2.17,1
1,1311,3,1,1,0.26,1
1,1311,1,2,1,0.86,-1
1,1311,2,3,1,1.69,1
1,1312,3,1,0,0.39,1
1,1312,2,2,0,0.79,1
1,1312,1,3,0,1.41,1
1,1313,3,1,0,0.32,1
1,1313,2,2,0,0.52,1
1,1313,1,3,0,1.23,-1
1,1314,3,1,0,0.23,1
1,1314,2,2,0,0.33,-1
1,1314,1,3,0,1.52,-1
1,1315,1,1,0,0.29,-1
1,1315,3,2,0,0.48,1
1,1315,2,3,0,0.6,1
1,1316,3,1,1,0.35,1
1,1316,1,2,1,0.78,1
1,1316,2,3,1,0.9,1
1,1317,1,1,1,0.14,1
1,1317,2,2,1,0.57,-1
1,1317,3,3,1,0.76,1
1,1318,2,1,0,1.07,1
1,1318,3,2,0,1.81,1
1,1318,1,3,0,3.35,-1
1,1319,3,1,1,0.18,1
1,1319,2,2,1,1.29,1
1,1319,1,3,1,4.49,1
1,1320,3,1,1,0.47,1
1,1320,2,2,1,0.63,1
1,1320,1,3,1,1.19,1
1,1321,1,1,0,0.38,1
1,1321,2,2,0,0.53,1
1,1321,3,3,0,1.3,1
1,1322,3,1,0,0.42,1
1,1322,1,2,0,1.63,-1
1,1322,2,3,0,1.8,1
1,1323,3,1,1,0.27,1
1,1323,2,2,1,0.53,1
1,1323,1,3,1,0.73,-1
1,1324,2,1,0,0.76,1
1,1324,3,2,0,1.12,1
1,1324,1,3,0,1.6,1
1,1325,2,1,1,0.41,1
1,1325,1,2,1,0.54,1
1,1325,3,3,1,1.06,1
1,1326,3,1,1,0.14,1
1,1326,1,2,1,0.22,1
1,1326,2,3,1,1.92,1
1,1327,2,1,0,0.46,1
1,1327,3,2,0,1.12,1
1,1327,1,3,0,1.51,1
1,1328,3,1,0,0.18,1
1,1328,2,2,0,0.4,-1
1,1328,1,3,0,2.54,1
1,1329,1,1,1,0.22,-1
1,1329,3,2,1,0.89,1
1,1329,2,3,1,1.13,-1
1,1330,3,1,1,0.21,1
1,1330,2,2,1,1.57,1
1,1330,1,3,1,1.84,-1
1,1331,2,1,1,0.21,1
1,1331,3,2,1,0.53,1
1,1331,1,3,1,0.86,1
1,1332,3,1,1,0.42,1
1,1332,2,2,1,0.45,1
1,1332,1,3,1,0.58,1
1,1333,2,1,0,0.55,-1
1,1333,3,2,0,0.88,1
1,1333,1,3,0,2.2,1
1,1334,1,1,0,0.31,1
1,1334,3,2,0,0.49,-1
1,1334,2,3,0,0.74,-1
1,1335,3,1,1,0.81,1
1,1335,2,2,1,0.97,1
1,1335,1,3,1,2.96,1
1,1336,1,1,1,0.63,-1
1,1336,3,2,1,1.1,1
1,1336,2,3,1,1.81,1
1,1337,1,1,1,0.75,1
1,1337,3,2,1,1.13,1
1,1337,2,3,1,1.33,1
1,1338,2,1,0,0.2,-1
1,1338,3,2,0,0.22,1
1,1338,1,3,0,1.38,-1
1,1339,1,1,0,0.33,-1
1,1339,2,2,0,0.35,1
1,1339,3,3,0,1.01,1
1,1340,3,1,1,1.02,1
1,1340,2,2,1,1.4,1
1,1340,1,3,1,1.54,1
1,1341,2,1,0,0.18,1
1,1341,3,2,0,0.27,-1
1,1341,1,3,0,0.84,1
1,1342,1,1,1,0.7,1
1,1342,3,2,1,1.59,1
1,1342,2,3,1,2.79,1
1,1343,3,1,0,0.56,1
1,1343,2,2,0,1.04,-1
1,1343,1,3,0,1.78,1
1,1344,2,1,1,0.34,1
1,1344,3,2,1,0.44,1
1,1344,1,3,1,0.63,1
1,1345,2,1,0,0.18,1
1,1345,3,2,0,1.2,1
1,1345,1,3,0,2.38,1
1,1346,2,1,1,0.41,-1
1,1346,3,2,1,0.52,-1
1,1346,1,3,1,1.32,-1
1,1347,2,1,1,0.31,-1
1,1347,3,2,1,0.32,1
1,1347,1,3,1,0.56,1
1,1348,1,1,0,0.22,-1
1,1348,2,2,0,0.29,1
1,1348,3,3,0,0.3,1
1,1349,2,1,1,0.44,1
1,1349,1,2,1,0.89,1
1,1349,3,3,1,1.43,-1
1,1350,1,1,0,0.49,-1
1,1350,2,2,0,0.55,1
1,1350,3,3,0,1.47,1
1,1351,2,1,1,0.13,1
1,1351,3,2,1,0.19,1
1,1351,1,3,1,0.31,1
1,1352,3,1,0,0.34,1
1,1352,2,2,0,0.71,1
1,1352,1,3,0,2.03,1
1,1353,2,1,1,0.54,1
1,1353,3,2,1,0.73,1
1,1353,1,3,1,0.84,-1
1,1354,3,1,1,0.56,1
1,1354,2,2,1,0.84,1
1,1354,1,3,1,0.86,1
1,1355,3,1,1,0.28,1
1,1355,2,2,1,0.7,-1
1,1355,1,3,1,1.18,1
1,1356,2,1,0,0.27,1
1,1356,3,2,0,0.44,1
1,1356,1,3,0,0.69,1
1,1357,3,1,0,0.38,1
1,1357,2,2,0,0.9,1
1,1357,1,3,0,1.08,1
1,1358,2,1,0,0.31,1
1,1358,3,2,0,0.7,1
1,1358,1,3,0,2.33,1
1,1359,1,1,0,0.23,-1
1,1359,3,2,0,1.23,-1
1,1359,2,3,0,1.79,1
1,1360,3,1,1,0.88,1
1,1360,2,2,1,1.23,1
1,1360,1,3,1,1.68,1
1,1361,2,1,1,0.16,1
1,1361,3,2,1,0.2,1
1,1361,1,3,1,1.14,1
1,1362,3,1,0,0.36,1
1,1362,1,2,0,0.92,-1
1,1362,2,3,0,1.44,1
1,1363,1,1,0,0.21,1
1,1363,3,2,0,0.77,1
1,1363,2,3,0,1.29,1
1,1364,3,1,0,0.19,1
1,1364,1,2,0,0.27,1
1,1364,2,3,0,0.58,1
1,1365,2,1,0,0.41,-1
1,1365,3,2,0,1.16,1
1,1365,1,3,0,1.63,-1
1,1366,2,1,0,0.43,1
1,1366,1,2,0,1.68,-1
1,1366,3,3,0,2.45,1
1,1367,1,1,1,0.36,1
1,1367,3,2,1,1.03,1
1,1367,2,3,1,1.5,1
1,1368,1,1,0,1.24,1
1,1368,3,2,0,1.31,1
1,1368,2,3,0,1.99,1
1,1369,1,1,1,0.46,1
1,1369,3,2,1,0.96,1
1,1369,2,3,1,1.91,1
1,1370,1,1,1,0.46,1
1,1370,3,2,1,0.58,-1
1,1370,2,3,1,0.96,1
1,1371,1,1,0,0.41,1
1,1371,3,2,0,0.48,1
1,1371,2,3,0,0.98,1
1,1372,3,1,0,0.4,1
1,1372,2,2,0,0.8,1
1,1372,1,3,0,2.92,1
1,1373,3,1,0,0.22,1
1,1373,1,2,0,0.24,1
1,1373,2,3,0,1.38,1
1,1374,3,1,1,0.35,1
1,1374,1,2,1,0.54,1
1,1374,2,3,1,0.75,1
1,1375,1,1,0,1.16,1
1,1375,2,2,0,1.17,1
1,1375,3,3,0,1.62,-1
1,1376,3,1,1,0.29,-1
1,1376,2,2,1,0.6,1
1,1376,1,3,1,4.36,1
1,1377,2,1,1,0.32,1
1,1377,1,2,1,0.45,1
1,1377,3,3,1,0.71,1
1,1378,3,1,0,0.4,1
1,1378,2,2,0,0.66,1
1,1378,1,3,0,0.84,1
1,1379,3,1,1,0.69,1
1,1379,2,2,1,1.6,1
1,1379,1,3,1,3.03,1
1,1380,3,1,1,0.52,1
1,1380,1,2,1,0.91,1
1,1380,2,3,1,1.4,1
1,1381,2,1,1,0.64,1
1,1381,3,2,1,0.69,1
1,1381,1,3,1,1.76,1
1,1382,3,1,1,0.57,1
1,1382,1,2,1,0.8,1
1,1382,2,3,1,2,-1
1,1383,1,1,1,0.71,1
1,1383,3,2,1,1.22,-1
1,1383,2,3,1,1.32,1
1,1384,2,1,1,0.11,1
1,1384,3,2,1,0.14,1
1,1384,1,3,1,0.67,1
1,1385,2,1,1,0.16,1
1,1385,3,2,1,0.25,1
1,1385,1,3,1,0.86,-1
1,1386,3,1,0,0.37,1
1,1386,2,2,0,0.61,1
1,1386,1,3,0,0.86,-1
1,1387,2,1,1,0.25,1
1,1387,3,2,1,1.37,1
1,1387,1,3,1,3.67,1
1,1388,3,1,0,0.15,1
1,1388,1,2,0,1.41,-1
1,1388,2,3,0,3,-1
1,1389,3,1,1,0.31,1
1,1389,1,2,1,1.63,-1
1,1389,2,3,1,3.42,1
1,1390,3,1,0,0.13,1
1,1390,1,2,0,0.48,-1
1,1390,2,3,0,1.89,1
1,1391,2,1,1,0.64,-1
1,1391,1,2,1,1.03,1
1,1391,3,3,1,1.05,1
1,1392,2,1,0,0.38,1
1,1392,3,2,0,1.27,-1
1,1392,1,3,0,3.69,1
1,1393,1,1,1,0.37,1
1,1393,3,2,1,0.78,-1
1,1393,2,3,1,0.91,1
1,1394,2,1,0,1.66,1
1,1394,3,2,0,2.72,1
1,1394,1,3,0,2.82,-1
1,1395,3,1,1,0.46,1
1,1395,2,2,1,1.06,1
1,1395,1,3,1,1.41,1
1,1396,3,1,0,0.24,1
1,1396,2,2,0,0.79,1
1,1396,1,3,0,1.99,1
1,1397,2,1,0,0.27,1
1,1397,3,2,0,0.81,1
1,1397,1,3,0,1.01,1
1,1398,3,1,1,0.68,1
1,1398,2,2,1,0.77,1
1,1398,1,3,1,3.01,1
1,1399,3,1,1,0.48,1
1,1399,1,2,1,0.51,-1
1,1399,2,3,1,0.52,1
1,1400,1,1,0,0.58,-1
1,1400,2,2,0,1.33,1
1,1400,3,3,0,1.63,-1
1,1401,2,1,1,0.36,1
1,1401,1,2,1,2.57,1
1,1401,3,3,1,4.55,1
1,1402,1,1,1,0.14,-1
1,1402,2,2,1,0.25,1
1,1402,3,3,1,0.89,1
1,1403,2,1,1,0.47,1
1,1403,1,2,1,0.55,-1
1,1403,3,3,1,0.62,1
1,1404,3,1,1,0.76,1
1,1404,2,2,1,1.02,-1
1,1404,1,3,1,1.09,-1
1,1405,1,1,0,0.62,-1
1,1405,2,2,0,0.63,-1
1,1405,3,3,0,1.01,1
1,1406,1,1,1,0.15,-1
1,1406,3,2,1,0.32,1
1,1406,2,3,1,1.39,1
1,1407,2,1,0,0.88,-1
1,1407,1,2,0,1.31,-1
1,1407,3,3,0,2,1
1,1408,1,1,0,0.41,-1
1,1408,2,2,0,0.42,1
1,1408,3,3,0,2.41,1
1,1409,1,1,0,0.81,1
1,1409,3,2,0,0.82,1
1,1409,2,3,0,0.95,1
1,1410,3,1,0,0.21,1
1,1410,1,2,0,0.24,-1
1,1410,2,3,0,0.43,-1
1,1411,2,1,1,0.19,1
1,1411,3,2,1,0.42,1
1,1411,1,3,1,1.07,1
1,1412,1,1,0,0.39,1
1,1412,3,2,0,0.7,1
1,1412,2,3,0,1.34,1
1,1413,1,1,0,0.35,-1
1,1413,2,2,0,1.01,-1
1,1413,3,3,0,1.13,1
1,1414,2,1,0,0.55,1
1,1414,3,2,0,0.6,1
1,1414,1,3,0,1.05,1
1,1415,3,1,0,0.38,-1
1,1415,1,2,0,0.59,-1
1,1415,2,3,0,1.47,1
1,1416,2,1,1,0.34,1
1,1416,1,2,1,0.83,-1
1,1416,3,3,1,1.7,1
1,1417,1,1,1,0.67,1
1,1417,2,2,1,1.2,-1
1,1417,3,3,1,1.61,1
1,1418,1,1,1,0.11,1
1,1418,3,2,1,0.4,1
1,1418,2,3,1,2.22,1
1,1419,1,1,0,0.48,1
1,1419,3,2,0,0.76,1
1,1419,2,3,0,1.2,1
1,1420,3,1,1,0.46,-1
1,1420,1,2,1,0.63,1
1,1420,2,3,1,0.75,1
1,1421,2,1,0,0.58,1
1,1421,3,2,0,0.77,1
1,1421,1,3,0,0.87,1
1,1422,2,1,0,0.44,1
1,1422,3,2,0,1.99,1
1,1422,1,3,0,2.75,1
1,1423,1,1,1,0.35,1
1,1423,3,2,1,0.68,1
1,1423,2,3,1,0.79,1
1,1424,3,1,0,0.72,1
1,1424,2,2,0,1.13,-1
1,1424,1,3,0,1.84,1
1,1425,3,1,1,0.65,1
1,1425,1,2,1,0.9,-1
1,1425,2,3,1,1.85,-1
1,1426,3,1,1,0.85,1
1,1426,1,2,1,1.84,1
1,1426,2,3,1,2.57,1
1,1427,1,1,1,0.4,-1
1,1427,2,2,1,0.91,1
1,1427,3,3,1,1.21,1
1,1428,3,1,0,0.36,1
1,1428,1,2,0,0.66,1
1,1428,2,3,0,1.13,1
1,1429,3,1,1,0.24,1
1,1429,2,2,1,0.71,1
1,1429,1,3,1,0.76,1
1,1430,1,1,0,0.81,-1
1,1430,2,2,0,0.99,1
1,1430,3,3,0,1.68,1
1,1431,3,1,1,0.36,-1
1,1431,2,2,1,0.66,1
1,1431,1,3,1,3.36,1
1,1432,1,1,1,0.16,1
1,1432,2,2,1,0.32,1
1,1432,3,3,1,0.84,1
1,1433,3,1,0,0.26,1
1,1433,1,2,0,0.73,-1
1,1433,2,3,0,1.04,-1
1,1434,1,1,1,0.62,1
1,1434,2,2,1,1.08,1
1,1434,3,3,1,1.65,1
1,1435,3,1,0,0.74,1
1,1435,2,2,0,0.99,1
1,1435,1,3,0,1.52,-1
1,1436,3,1,1,0.35,1
1,1436,1,2,1,0.75,1
1,1436,2,3,1,1,1
1,1437,2,1,1,0.27,1
1,1437,3,2,1,0.36,1
1,1437,1,3,1,1.11,1
1,1438,3,1,1,0.25,1
1,1438,2,2,1,0.49,1
1,1438,1,3,1,0.53,1
1,1439,3,1,1,0.2,-1
1,1439,1,2,1,0.5,1
1,1439,2,3,1,1.33,1
1,1440,2,1,0,0.25,-1
1,1440,1,2,0,0.69,-1
1,1440,3,3,0,1.85,1
1,1441,1,1,1,0.76,1
1,1441,3,2,1,0.93,-1
1,1441,2,3,1,1.64,1
1,1442,1,1,1,0.61,1
1,1442,3,2,1,0.64,1
1,1442,2,3,1,1.18,1
1,1443,3,1,1,0.42,1
1,1443,2,2,1,0.58,1
1,1443,1,3,1,1.14,-1
1,1444,2,1,1,0.9,-1
1,1444,3,2,1,1.67,1
1,1444,1,3,1,2.18,-1
1,1445,3,1,0,0.14,1
1,1445,1,2,0,0.41,1
1,1445,2,3,0,2.03,1
1,1446,1,1,1,0.36,1
1,1446,2,2,1,1.03,1
1,1446,3,3,1,2.24,1
1,1447,2,1,0,0.21,1
1,1447,3,2,0,0.71,1
1,1447,1,3,0,0.8,1
1,1448,2,1,0,0.56,-1
1,1448,3,2,0,1.87,1
1,1448,1,3,0,2.12,1
1,1449,2,1,1,0.45,1
1,1449,3,2,1,1.29,1
1,1449,1,3,1,1.61,-1
1,1450,3,1,1,0.46,1
1,1450,2,2,1,0.93,1
1,1450,1,3,1,1.83,-1
1,1451,2,1,0,0.16,1
1,1451,1,2,0,0.42,-1
1,1451,3,3,0,0.43,1
1,1452,2,1,1,0.89,1
1,1452,3,2,1,0.9,1
1,1452,1,3,1,1.78,1
1,1453,3,1,0,0.62,1
1,1453,2,2,0,0.77,1
1,1453,1,3,0,7.04,1
1,1454,1,1,0,0.29,1
1,1454,3,2,0,0.61,1
1,1454,2,3,0,1.45,1
1,1455,2,1,1,0.18,1
1,1455,1,2,1,0.24,1
1,1455,3,3,1,0.51,-1
1,1456,3,1,1,0.39,1
1,1456,2,2,1,0.59,1
1,1456,1,3,1,0.83,1
1,1457,3,1,0,0.71,1
1,1457,2,2,0,0.83,1
1,1457,1,3,0,0.97,1
1,1458,2,1,1,0.21,-1
1,1458,1,2,1,1.42,-1
1,1458,3,3,1,2.06,1
1,1459,3,1,1,0.64,1
1,1459,1,2,1,1.02,1
1,1459,2,3,1,1.48,1
1,1460,3,1,1,0.24,-1
1,1460,2,2,1,0.29,1
1,1460,1,3,1,0.7,1
1,1461,3,1,0,0.36,1
1,1461,2,2,0,0.73,1
1,1461,1,3,0,2.92,1
1,1462,3,1,0,0.23,1
1,1462,1,2,0,0.52,1
1,1462,2,3,0,0.72,-1
1,1463,3,1,1,0.38,1
1,1463,2,2,1,0.47,-1
1,1463,1,3,1,0.94,-1
1,1464,1,1,1,0.36,1
1,1464,3,2,1,1.32,1
1,1464,2,3,1,1.69,-1
1,1465,1,1,0,0.13,1
1,1465,3,2,0,0.33,1
1,1465,2,3,0,1.06,1
1,1466,2,1,1,0.65,1
1,1466,3,2,1,0.69,1
1,1466,1,3,1,3.84,1
1,1467,3,1,0,0.37,1
1,1467,1,2,0,0.4,1
1,1467,2,3,0,0.84,-1
1,1468,1,1,1,0.09,1
1,1468,3,2,1,0.22,1
1,1468,2,3,1,0.89,-1
1,1469,3,1,0,0.34,1
1,1469,2,2,0,0.54,1
1,1469,1,3,0,0.61,1
1,1470,2,1,0,0.12,-1
1,1470,1,2,0,0.59,1
1,1470,3,3,0,1.03,1
1,1471,2,1,1,0.21,1
1,1471,1,2,1,0.73,1
1,1471,3,3,1,0.81,1
1,1472,2,1,0,0.3,1
1,1472,3,2,0,0.52,1
1,1472,1,3,0,1.4,-1
1,1473,2,1,0,0.67,-1
1,1473,1,2,0,1.13,1
1,1473,3,3,0,3.13,1
1,1474,2,1,1,0.17,1
1,1474,1,2,1,0.18,1
1,1474,3,3,1,1.19,1
1,1475,3,1,1,0.19,1
1,1475,1,2,1,0.41,-1
1,1475,2,3,1,0.47,1
1,1476,2,1,1,0.26,1
1,1476,1,2,1,0.29,1
1,1476,3,3,1,0.84,1
1,1477,3,1,1,0.22,-1
1,1477,2,2,1,1.4,1
1,1477,1,3,1,1.45,-1
1,1478,2,1,1,0.5,1
1,1478,3,2,1,0.71,1
1,1478,1,3,1,0.84,1
1,1479,3,1,0,0.26,1
1,1479,1,2,0,0.27,-1
1,1479,2,3,0,2.06,1
1,1480,1,1,1,0.47,-1
1,1480,2,2,1,0.51,1
1,1480,3,3,1,0.72,1
1,1481,3,1,0,0.21,1
1,1481,2,2,0,0.65,1
1,1481,1,3,0,1.27,1
1,1482,1,1,0,0.27,1
1,1482,3,2,0,0.53,1
1,1482,2,3,0,1.78,1
1,1483,2,1,1,0.59,-1
1,1483,3,2,1,0.61,-1
1,1483,1,3,1,1,1
1,1484,1,1,1,0.27,1
1,1484,3,2,1,0.49,1
1,1484,2,3,1,0.59,1
1,1485,3,1,1,0.45,1
1,1485,2,2,1,0.79,-1
1,1485,1,3,1,2.1,1
1,1486,2,1,0,0.46,1
1,1486,1,2,0,0.48,1
1,1486,3,3,0,2.22,1
1,1487,3,1,0,1.13,1
1,1487,2,2,0,1.94,1
1,1487,1,3,0,3.62,-1
1,1488,2,1,0,0.38,1
1,1488,3,2,0,0.48,1
1,1488,1,3,0,0.98,-1
1,1489,2,1,1,0.61,1
1,1489,3,2,1,1.29,1
1,1489,1,3,1,2.08,1
1,1490,1,1,1,0.14,1
1,1490,3,2,1,0.27,1
1,1490,2,3,1,0.71,1
1,1491,1,1,1,0.47,1
1,1491,3,2,1,0.83,1
1,1491,2,3,1,2.76,1
1,1492,3,1,0,0.32,1
1,1492,1,2,0,1.39,1
1,1492,2,3,0,1.66,1
1,1493,3,1,0,0.55,1
1,1493,2,2,0,0.66,-1
1,1493,1,3,0,1.22,-1
1,1494,1,1,1,1.23,1
1,1494,3,2,1,1.25,1
1,1494,2,3,1,1.67,1
1,1495,3,1,0,0.73,-1
1,1495,1,2,0,0.85,1
1,1495,2,3,0,1.5,1
1,1496,3,1,0,0.73,1
1,1496,1,2,0,0.86,1
1,1496,2,3,0,1.74,1
1,1497,3,1,0,0.35,1
1,1497,1,2,0,0.48,1
1,1497,2,3,0,1.08,1
1,1498,1,1,1,0.51,1
1,1498,3,2,1,0.62,1
1,1498,2,3,1,2.61,-1
1,1499,2,1,1,0.41,1
1,1499,3,2,1,0.55,1
1,1499,1,3,1,1.47,1
1,1500,2,1,0,0.39,1
1,1500,3,2,0,0.44,1
1,1500,1,3,0,0.93,1
1,1501,3,1,0,0.21,1
1,1501,2,2,0,1.06,1
1,1501,1,3,0,3.14,1
1,1502,2,1,1,0.22,1
1,1502,1,2,1,0.87,1
1,1502,3,3,1,1.06,1
1,1503,3,1,0,0.59,1
1,1503,2,2,0,1.11,1
1,1503,1,3,0,1.31,1
1,1504,1,1,1,0.38,1
1,1504,3,2,1,0.57,1
1,1504,2,3,1,1.08,1
1,1505,3,1,1,0.44,-1
1,1505,1,2,1,0.69,1
1,1505,2,3,1,1.45,1
1,1506,2,1,0,0.16,1
1,1506,1,2,0,1.7,-1
1,1506,3,3,0,2.2,1
1,1507,1,1,0,1.17,-1
1,1507,2,2,0,1.82,1
1,1507,3,3,0,2.2,1
1,1508,3,1,0,0.63,1
1,1508,2,2,0,1.65,1
1,1508,1,3,0,2.95,-1
1,1509,2,1,1,0.1,1
1,1509,1,2,1,0.3,1
1,1509,3,3,1,0.81,1
1,1510,1,1,0,0.55,-1
1,1510,2,2,0,0.86,1
1,1510,3,3,0,1.1,1
1,1511,3,1,0,0.15,1
1,1511,2,2,0,0.48,1
1,1511,1,3,0,1.97,-1
1,1512,3,1,0,0.38,-1
1,1512,2,2,0,1.08,1
1,1512,1,3,0,1.49,1
1,1513,1,1,0,0.34,1
1,1513,2,2,0,0.76,1
1,1513,3,3,0,1.05,1
1,1514,3,1,0,0.12,1
1,1514,1,2,0,0.86,1
1,1514,2,3,0,2.1,-1
1,1515,3,1,0,0.29,1
1,1515,1,2,0,0.99,1
1,1515,2,3,0,1.01,-1
1,1516,1,1,0,0.38,1
1,1516,2,2,0,0.54,1
1,1516,3,3,0,1.67,-1
1,1517,3,1,1,0.17,1
1,1517,2,2,1,0.31,1
1,1517,1,3,1,1.54,1
1,1518,2,1,1,0.28,1
1,1518,3,2,1,0.63,1
1,1518,1,3,1,0.95,1
1,1519,2,1,1,0.23,1
1,1519,1,2,1,0.26,1
1,1519,3,3,1,0.74,1
1,1520,3,1,0,0.27,-1
1,1520,2,2,0,0.73,1
1,1520,1,3,0,2.34,1
1,1521,2,1,1,0.36,1
1,1521,1,2,1,0.39,-1
1,1521,3,3,1,0.78,1
1,1522,3,1,1,0.96,1
1,1522,2,2,1,1.14,1
1,1522,1,3,1,1.82,1
1,1523,3,1,0,0.14,-1
1,1523,2,2,0,0.18,1
1,1523,1,3,0,1.62,1
1,1524,1,1,1,0.43,1
1,1524,2,2,1,0.67,1
1,1524,3,3,1,0.91,1
1,1525,2,1,0,0.4,1
1,1525,3,2,0,1.29,1
1,1525,1,3,0,1.65,-1
1,1526,2,1,0,0.45,1
1,1526,3,2,0,1.06,1
1,1526,1,3,0,2.14,1
1,1527,2,1,0,0.42,1
1,1527,1,2,0,0.51,1
1,1527,3,3,0,2.01,-1
1,1528,3,1,1,0.53,1
1,1528,1,2,1,0.9,-1
1,1528,2,3,1,2.25,1
1,1529,3,1,0,0.21,1
1,1529,2,2,0,0.49,1
1,1529,1,3,0,3.54,-1
1,1530,1,1,0,0.23,1
1,1530,3,2,0,0.75,1
1,1530,2,3,0,1.67,1
1,1531,1,1,0,0.58,-1
1,1531,3,2,0,0.86,1
1,1531,2,3,0,1.12,1
1,1532,2,1,0,0.2,1
1,1532,3,2,0,0.5,1
1,1532,1,3,0,1.76,1
1,1533,2,1,1,0.83,-1
1,1533,1,2,1,1.24,-1
1,1533,3,3,1,1.43,1
1,1534,1,1,0,0.18,-1
1,1534,2,2,0,0.41,1
1,1534,3,3,0,1.41,1
1,1535,1,1,0,0.79,1
1,1535,3,2,0,0.82,1
1,1535,2,3,0,1.58,1
1,1536,3,1,0,0.28,1
1,1536,2,2,0,0.53,1
1,1536,1,3,0,0.65,1
1,1537,2,1,0,0.24,1
1,1537,3,2,0,0.85,1
1,1537,1,3,0,1.32,1
1,1538,3,1,0,0.19,1
1,1538,1,2,0,0.33,-1
1,1538,2,3,0,0.39,-1
1,1539,2,1,0,0.2,1
1,1539,1,2,0,0.67,1
1,1539,3,3,0,1.83,1
1,1540,1,1,1,0.52,1
1,1540,2,2,1,0.55,-1
1,1540,3,3,1,2.35,1
1,1541,2,1,1,0.5,1
1,1541,3,2,1,0.58,1
1,1541,1,3,1,1.62,1
1,1542,3,1,0,0.22,1
1,1542,1,2,0,0.42,1
1,1542,2,3,0,0.57,1
1,1543,1,1,0,0.29,1
1,1543,3,2,0,0.68,-1
1,1543,2,3,0,1.19,1
1,1544,3,1,1,0.36,1
1,1544,1,2,1,0.61,-1
1,1544,2,3,1,0.82,1
1,1545,2,1,0,0.59,1
1,1545,3,2,0,0.84,1
1,1545,1,3,0,0.97,1
1,1546,2,1,1,0.26,-1
1,1546,3,2,1,1.19,-1
1,1546,1,3,1,1.98,1
1,1547,2,1,0,0.43,1
1,1547,3,2,0,0.96,1
1,1547,1,3,0,1.46,-1
1,1548,1,1,0,0.28,1
1,1548,2,2,0,0.41,1
1,1548,3,3,0,1.05,1
1,1549,3,1,1,0.24,1
1,1549,2,2,1,0.59,-1
1,1549,1,3,1,1.85,1
1,1550,1,1,1,0.19,1
1,1550,2,2,1,0.4,1
1,1550,3,3,1,1.06,1
1,1551,2,1,0,0.64,1
1,1551,3,2,0,1.1,1
1,1551,1,3,0,1.77,-1
1,1552,2,1,0,0.66,1
1,1552,1,2,0,0.76,-1
1,1552,3,3,0,1.53,1
1,1553,3,1,0,0.22,1
1,1553,1,2,0,1.22,1
1,1553,2,3,0,2.83,-1
1,1554,2,1,0,0.33,1
1,1554,1,2,0,0.52,-1
1,1554,3,3,0,0.74,1
1,1555,3,1,1,0.58,1
1,1555,1,2,1,1.05,-1
1,1555,2,3,1,2.85,1
1,1556,3,1,0,0.37,1
1,1556,2,2,0,0.64,-1
1,1556,1,3,0,1.84,-1
1,1557,3,1,1,0.52,1
1,1557,2,2,1,0.94,1
1,1557,1,3,1,2.05,1
1,1558,1,1,0,1.1,1
1,1558,2,2,0,1.78,-1
1,1558,3,3,0,2.46,1
1,1559,2,1,0,0.75,1
1,1559,3,2,0,0.99,1
1,1559,1,3,0,2.44,-1
1,1560,3,1,1,0.49,1
1,1560,2,2,1,0.7,1
1,1560,1,3,1,0.94,-1
1,1561,1,1,1,0.26,-1
1,1561,3,2,1,0.35,1
1,1561,2,3,1,1.18,1
1,1562,2,1,0,0.21,1
1,1562,3,2,0,0.47,-1
1,1562,1,3,0,1.06,-1
1,1563,1,1,1,0.44,1
1,1563,2,2,1,0.54,1
1,1563,3,3,1,1.37,1
1,1564,2,1,1,0.16,1
1,1564,3,2,1,0.91,1
1,1564,1,3,1,1.39,1
1,1565,3,1,0,0.41,1
1,1565,2,2,0,0.53,1
1,1565,1,3,0,1.42,-1
1,1566,2,1,1,0.55,1
1,1566,3,2,1,0.57,1
1,1566,1,3,1,0.8,1
1,1567,3,1,0,0.35,1
1,1567,2,2,0,0.77,1
1,1567,1,3,0,0.91,-1
1,1568,3,1,0,0.49,1
1,1568,2,2,0,1.01,1
1,1568,1,3,0,2.32,1
1,1569,1,1,1,0.3,-1
1,1569,2,2,1,0.7,1
1,1569,3,3,1,0.89,-1
1,1570,2,1,1,0.18,1
1,1570,1,2,1,0.39,1
1,1570,3,3,1,1.23,1
1,1571,1,1,0,0.3,1
1,1571,2,2,0,0.77,-1
1,1571,3,3,0,1.34,-1
1,1572,1,1,1,0.51,-1
1,1572,3,2,1,1.49,1
1,1572,2,3,1,1.75,-1
1,1573,1,1,0,0.31,1
1,1573,2,2,0,0.33,1
1,1573,3,3,0,0.73,1
1,1574,1,1,0,0.31,-1
1,1574,2,2,0,0.49,1
1,1574,3,3,0,1.25,1
1,1575,3,1,1,0.61,1
1,1575,1,2,1,0.85,1
1,1575,2,3,1,1.44,-1
1,1576,1,1,0,0.53,-1
1,1576,3,2,0,0.65,1
1,1576,2,3,0,0.9,-1
1,1577,2,1,1,0.22,1
1,1577,3,2,1,0.63,1
1,1577,1,3,1,0.69,-1
1,1578,3,1,0,0.09,1
1,1578,1,2,0,0.41,1
1,1578,2,3,0,2.06,1
1,1579,3,1,0,0.64,1
1,1579,2,2,0,1.23,1
1,1579,1,3,0,1.7,1
1,1580,1,1,1,0.18,1
1,1580,3,2,1,1.19,-1
1,1580,2,3,1,1.25,1
1,1581,3,1,0,0.22,1
1,1581,1,2,0,0.32,-1
1,1581,2,3,0,0.87,1
1,1582,1,1,1,0.38,1
1,1582,3,2,1,0.7,1
1,1582,2,3,1,0.96,-1
1,1583,2,1,1,0.34,1
1,1583,1,2,1,1.53,1
1,1583,3,3,1,1.77,1
1,1584,2,1,0,0.56,1
1,1584,3,2,0,0.6,1
1,1584,1,3,0,2.03,-1
1,1585,3,1,1,0.24,1
1,1585,1,2,1,1.07,-1
1,1585,2,3,1,2.43,1
1,1586,3,1,1,0.56,1
1,1586,1,2,1,0.62,1
1,1586,2,3,1,1.17,1
1,1587,2,1,1,0.41,1
1,1587,1,2,1,0.83,-1
1,1587,3,3,1,1.21,1
1,1588,1,1,1,0.19,1
1,1588,2,2,1,0.47,1
1,1588,3,3,1,0.76,1
1,1589,2,1,1,0.4,1
1,1589,1,2,1,0.57,1
1,1589,3,3,1,0.77,1
1,1590,1,1,1,0.23,1
1,1590,2,2,1,0.29,1
1,1590,3,3,1,0.85,1
1,1591,1,1,1,0.65,-1
1,1591,3,2,1,1.51,1
1,1591,2,3,1,2.73,-1
1,1592,1,1,1,0.33,-1
1,1592,2,2,1,0.6,1
1,1592,3,3,1,0.95,1
1,1593,2,1,0,0.27,1
1,1593,3,2,0,1.13,1
1,1593,1,3,0,2.24,1
1,1594,2,1,0,0.21,-1
1,1594,3,2,0,0.74,1
1,1594,1,3,0,3.23,1
1,1595,1,1,0,0.41,1
1,1595,3,2,0,0.78,1
1,1595,2,3,0,2.32,-1
1,1596,2,1,0,0.37,1
1,1596,3,2,0,0.76,1
1,1596,1,3,0,1.21,1
1,1597,1,1,0,0.31,-1
1,1597,3,2,0,0.51,-1
1,1597,2,3,0,0.81,1
1,1598,2,1,1,0.3,1
1,1598,1,2,1,0.64,1
1,1598,3,3,1,1.8,1
1,1599,1,1,0,0.62,1
1,1599,2,2,0,1.02,1
1,1599,3,3,0,2.37,1
1,1600,3,1,0,1.13,1
1,1600,2,2,0,1.26,-1
1,1600,1,3,0,1.85,-1
1,1601,2,1,1,0.38,1
1,1601,3,2,1,0.88,1
1,1601,1,3,1,3.77,1
1,1602,1,1,0,0.44,1
1,1602,2,2,0,0.75,1
1,1602,3,3,0,0.79,1
1,1603,2,1,1,0.25,1
1,1603,3,2,1,0.77,1
1,1603,1,3,1,1.33,1
1,1604,1,1,1,1.08,1
1,1604,3,2,1,1.17,1
1,1604,2,3,1,2.43,-1
1,1605,3,1,0,0.41,1
1,1605,1,2,0,0.74,1
1,1605,2,3,0,2.07,1
1,1606,3,1,0,1.51,1
1,1606,2,2,0,2.02,1
1,1606,1,3,0,2.92,1
1,1607,2,1,1,0.43,1
1,1607,1,2,1,0.74,1
1,1607,3,3,1,1.85,1
1,1608,3,1,0,0.57,1
1,1608,2,2,0,0.82,1
1,1608,1,3,0,2.26,1
1,1609,3,1,0,0.18,-1
1,1609,1,2,0,0.51,1
1,1609,2,3,0,1.29,-1
1,1610,1,1,1,0.83,-1
1,1610,2,2,1,1.17,1
1,1610,3,3,1,1.73,1
1,1611,3,1,1,0.16,1
1,1611,2,2,1,0.27,1
1,1611,1,3,1,0.33,1
1,1612,2,1,1,0.23,1
1,1612,3,2,1,0.38,1
1,1612,1,3,1,0.43,-1
1,1613,3,1,0,1.1,1
1,1613,1,2,0,1.38,1
1,1613,2,3,0,1.64,1
1,1614,3,1,1,0.4,1
1,1614,2,2,1,0.41,1
1,1614,1,3,1,0.57,-1
1,1615,2,1,1,0.3,-1
1,1615,3,2,1,0.59,1
1,1615,1,3,1,2.7,-1
1,1616,3,1,1,0.66,1
1,1616,2,2,1,0.8,1
1,1616,1,3,1,1.41,-1
1,1617,1,1,0,0.7,1
1,1617,2,2,0,0.74,-1
1,1617,3,3,0,3.25,1
1,1618,3,1,0,0.24,1
1,1618,2,2,0,0.87,1
1,1618,1,3,0,1.79,-1
1,1619,2,1,1,0.21,1
1,1619,3,2,1,0.29,-1
1,1619,1,3,1,0.33,-1
1,1620,3,1,0,0.27,1
1,1620,2,2,0,0.65,1
1,1620,1,3,0,1.37,-1
1,1621,1,1,0,0.9,1
1,1621,2,2,0,0.91,1
1,1621,3,3,0,1.04,1
1,1622,1,1,1,0.58,1
1,1622,3,2,1,0.67,1
1,1622,2,3,1,0.68,-1
1,1623,1,1,0,0.67,1
1,1623,2,2,0,1.15,1
1,1623,3,3,0,2.39,1
1,1624,1,1,0,0.21,1
1,1624,3,2,0,0.71,1
1,1624,2,3,0,1.02,-1
1,1625,3,1,0,0.75,1
1,1625,1,2,0,1.76,-1
1,1625,2,3,0,1.9,1
1,1626,2,1,0,0.16,1
1,1626,3,2,0,0.44,1
1,1626,1,3,0,0.52,-1
1,1627,2,1,1,0.34,-1
1,1627,3,2,1,0.54,1
1,1627,1,3,1,5.11,1
1,1628,2,1,0,0.22,1
1,1628,3,2,0,0.24,1
1,1628,1,3,0,0.87,1
1,1629,2,1,1,0.59,1
1,1629,3,2,1,0.85,1
1,1629,1,3,1,1.33,-1
1,1630,3,1,0,0.26,1
1,1630,2,2,0,0.51,1
1,1630,1,3,0,1.05,-1
1,1631,1,1,1,0.43,1
1,1631,2,2,1,0.59,1
1,1631,3,3,1,1.09,1
1,1632,3,1,1,0.74,1
1,1632,1,2,1,0.76,-1
1,1632,2,3,1,0.77,1
1,1633,1,1,1,0.35,1
1,1633,3,2,1,1.22,1
1,1633,2,3,1,1.72,1
1,1634,2,1,1,0.3,1
1,1634,3,2,1,2.34,1
1,1634,1,3,1,2.85,1
1,1635,1,1,0,1.03,1
1,1635,2,2,0,1.39,-1
1,1635,3,3,0,1.84,1
1,1636,2,1,1,0.27,1
1,1636,3,2,1,0.64,1
1,1636,1,3,1,0.65,1
1,1637,2,1,0,0.33,1
1,1637,1,2,0,0.68,1
1,1637,3,3,0,1.27,1
1,1638,3,1,0,0.18,1
1,1638,2,2,0,0.67,-1
1,1638,1,3,0,2.54,1
1,1639,1,1,1,0.39,-1
1,1639,3,2,1,1.02,-1
1,1639,2,3,1,1.99,1
1,1640,2,1,0,0.19,1
1,1640,1,2,0,1.63,1
1,1640,3,3,0,2.88,1
1,1641,2,1,0,0.27,1
1,1641,1,2,0,0.47,1
1,1641,3,3,0,1.01,1
1,1642,2,1,0,0.22,1
1,1642,1,2,0,0.32,1
1,1642,3,3,0,0.47,1
1,1643,3,1,1,0.24,1
1,1643,1,2,1,0.32,1
1,1643,2,3,1,0.71,1
1,1644,1,1,0,0.29,1
1,1644,2,2,0,0.3,1
1,1644,3,3,0,0.36,1
1,1645,1,1,0,0.26,-1
1,1645,2,2,0,1.34,-1
1,1645,3,3,0,2.47,1
1,1646,2,1,0,0.13,1
1,1646,3,2,0,0.22,1
1,1646,1,3,0,0.71,-1
1,1647,2,1,0,0.62,-1
1,1647,3,2,0,1.21,1
1,1647,1,3,0,1.27,1
1,1648,3,1,0,0.85,1
1,1648,1,2,0,1.39,-1
1,1648,2,3,0,1.71,1
1,1649,3,1,1,0.27,1
1,1649,2,2,1,0.92,1
1,1649,1,3,1,1.85,1
1,1650,3,1,1,0.2,1
1,1650,2,2,1,0.46,1
1,1650,1,3,1,1.49,-1
1,1651,3,1,1,0.67,-1
1,1651,2,2,1,0.71,1
1,1651,1,3,1,1.03,1
1,1652,3,1,1,0.44,1
1,1652,2,2,1,0.98,-1
1,1652,1,3,1,1.02,-1
1,1653,3,1,0,0.63,1
1,1653,1,2,0,3.73,1
1,1653,2,3,0,4.97,1
1,1654,2,1,0,0.21,1
1,1654,1,2,0,0.57,1
1,1654,3,3,0,1.58,1
1,1655,2,1,0,0.13,1
1,1655,3,2,0,0.31,1
1,1655,1,3,0,2.76,-1
1,1656,2,1,1,0.21,-1
1,1656,3,2,1,0.62,1
1,1656,1,3,1,0.7,1
1,1657,3,1,1,0.19,1
1,1657,1,2,1,0.57,1
1,1657,2,3,1,1.57,1
1,1658,2,1,0,0.3,1
1,1658,1,2,0,0.37,1
1,1658,3,3,0,0.52,1
1,1659,2,1,0,0.63,1
1,1659,1,2,0,0.94,1
1,1659,3,3,0,2.09,1
1,1660,3,1,1,0.17,1
1,1660,1,2,1,0.25,1
1,1660,2,3,1,0.34,1
1,1661,2,1,1,0.47,1
1,1661,1,2,1,0.55,1
1,1661,3,3,1,0.61,1
1,1662,3,1,1,0.48,1
1,1662,2,2,1,0.58,1
1,1662,1,3,1,1.66,1
1,1663,3,1,1,0.19,1
1,1663,1,2,1,2.42,1
1,1663,2,3,1,3.14,1
1,1664,1,1,1,0.64,1
1,1664,3,2,1,0.78,1
1,1664,2,3,1,1.86,1
1,1665,3,1,0,0.49,1
1,1665,2,2,0,0.65,-1
1,1665,1,3,0,1.13,-1
1,1666,3,1,1,0.33,1
1,1666,2,2,1,0.37,1
1,1666,1,3,1,0.74,1
1,1667,1,1,0,0.98,-1
1,1667,3,2,0,1.34,-1
1,1667,2,3,0,1.81,1
1,1668,1,1,1,0.39,-1
1,1668,3,2,1,1.46,1
1,1668,2,3,1,1.84,1
1,1669,3,1,0,0.14,-1
1,1669,2,2,0,0.62,-1
1,1669,1,3,0,1.25,1
1,1670,1,1,0,0.62,1
1,1670,3,2,0,0.63,1
1,1670,2,3,0,1.57,1
1,1671,3,1,1,0.44,1
1,1671,2,2,1,1.39,-1
1,1671,1,3,1,1.98,1
1,1672,3,1,1,0.43,-1
1,1672,1,2,1,0.46,-1
1,1672,2,3,1,1.44,1
1,1673,3,1,0,0.42,1
1,1673,1,2,0,0.67,1
1,1673,2,3,0,1.35,1
1,1674,1,1,1,0.58,1
1,1674,3,2,1,0.63,1
1,1674,2,3,1,1.07,1
1,1675,3,1,0,0.7,1
1,1675,2,2,0,2.35,1
1,1675,1,3,0,2.56,1
1,1676,3,1,0,0.14,1
1,1676,2,2,0,0.32,1
1,1676,1,3,0,0.76,1
1,1677,1,1,1,0.63,1
1,1677,2,2,1,0.76,-1
1,1677,3,3,1,2.67,-1
1,1678,3,1,1,0.41,1
1,1678,1,2,1,1.07,-1
1,1678,2,3,1,1.73,1
1,1679,3,1,1,0.37,1
1,1679,2,2,1,0.67,1
1,1679,1,3,1,0.83,1
1,1680,2,1,0,0.54,1
1,1680,3,2,0,0.92,1
1,1680,1,3,0,1.12,-1
1,1681,3,1,0,1.1,1
1,1681,1,2,0,1.43,1
1,1681,2,3,0,3.12,1
1,1682,3,1,0,0.79,1
1,1682,1,2,0,1.54,1
1,1682,2,3,0,2.2,1
1,1683,1,1,1,0.65,1
1,1683,3,2,1,1.35,1
1,1683,2,3,1,1.8,1
1,1684,3,1,1,0.3,1
1,1684,1,2,1,0.73,1
1,1684,2,3,1,0.95,1
1,1685,3,1,1,0.14,1
1,1685,1,2,1,0.2,1
1,1685,2,3,1,1.56,1
1,1686,1,1,0,0.33,1
1,1686,2,2,0,0.53,1
1,1686,3,3,0,0.55,1
1,1687,2,1,0,0.68,1
1,1687,1,2,0,0.89,1
1,1687,3,3,0,1.47,1
1,1688,2,1,0,0.32,1
1,1688,3,2,0,0.34,1
1,1688,1,3,0,1.42,-1
1,1689,3,1,1,0.19,1
1,1689,1,2,1,0.44,1
1,1689,2,3,1,2.01,1
1,1690,1,1,1,0.25,1
1,1690,2,2,1,0.52,1
1,1690,3,3,1,1.31,1
1,1691,3,1,1,0.27,1
1,1691,2,2,1,0.31,1
1,1691,1,3,1,1.58,1
1,1692,3,1,1,0.21,1
1,1692,2,2,1,0.75,1
1,1692,1,3,1,0.83,1
1,1693,3,1,1,0.54,-1
1,1693,1,2,1,0.98,1
1,1693,2,3,1,1.56,1
1,1694,3,1,1,1.56,-1
1,1694,1,2,1,1.65,-1
1,1694,2,3,1,2.16,-1
1,1695,2,1,1,0.63,1
1,1695,3,2,1,0.83,1
1,1695,1,3,1,2.16,-1
1,1696,3,1,0,0.89,1
1,1696,1,2,0,1.2,1
1,1696,2,3,0,3.62,1
1,1697,3,1,1,0.26,1
1,1697,2,2,1,1.41,1
1,1697,1,3,1,1.53,1
1,1698,1,1,0,0.55,1
1,1698,2,2,0,0.86,1
1,1698,3,3,0,0.95,1
1,1699,3,1,0,0.54,1
1,1699,2,2,0,1.15,1
1,1699,1,3,0,1.72,-1
1,1700,2,1,0,0.22,-1
1,1700,1,2,0,0.75,-1
1,1700,3,3,0,1.12,1
1,1701,2,1,1,0.38,-1
1,1701,3,2,1,0.39,1
1,1701,1,3,1,1.57,-1
1,1702,1,1,1,0.35,1
1,1702,2,2,1,0.39,1
1,1702,3,3,1,0.5,1
1,1703,2,1,0,0.36,1
1,1703,1,2,0,1.98,-1
1,1703,3,3,0,2.5,1
1,1704,3,1,0,0.12,1
1,1704,2,2,0,0.49,1
1,1704,1,3,0,0.86,1
1,1705,3,1,0,0.34,1
1,1705,1,2,0,0.44,1
1,1705,2,3,0,1.14,1
1,1706,3,1,1,0.28,-1
1,1706,2,2,1,0.29,1
1,1706,1,3,1,0.51,1
1,1707,3,1,0,0.33,1
1,1707,2,2,0,1.84,-1
1,1707,1,3,0,2.39,-1
1,1708,1,1,0,0.53,-1
1,1708,2,2,0,0.91,1
1,1708,3,3,0,3.94,1
1,1709,1,1,0,0.32,1
1,1709,3,2,0,0.36,1
1,1709,2,3,0,0.61,1
1,1710,3,1,0,0.37,1
1,1710,2,2,0,0.88,-1
1,1710,1,3,0,1.06,1
1,1711,1,1,0,0.53,1
1,1711,2,2,0,1.37,1
1,1711,3,3,0,1.79,1
1,1712,3,1,0,0.81,1
